timestamp_ms,recv_timestamp_ms,pitch,roll,yaw,flex1,flex2,flex3,flex4,flex5,sampling_hz,accel_x,accel_y,accel_z
1970-01-01 00:00:00.000089311,1755597882168,22.75,-44.36,-2.12,770.0,774.0,844.0,893.0,864.0,34.48275862068966,-0.383,-0.649,0.656
1970-01-01 00:00:00.000089370,1755597882172,22.78,-44.38,-2.13,,,,,,33.333333333333336,-0.385,-0.65,0.656
1970-01-01 00:00:00.000089399,1755597882173,22.79,-44.4,-2.13,,,,,,34.48275862068966,-0.385,-0.651,0.655
1970-01-01 00:00:00.000089429,1755597882176,22.8,-44.41,-2.12,,,,,,33.333333333333336,-0.385,-0.652,0.655
1970-01-01 00:00:00.000089458,1755597882178,22.82,-44.43,-2.12,,,,,,34.48275862068966,-0.383,-0.652,0.654
1970-01-01 00:00:00.000089488,1755597882179,22.82,-44.43,-2.13,,,,,,33.333333333333336,-0.384,-0.651,0.654
1970-01-01 00:00:00.000089547,1755597882184,22.82,-44.46,-2.13,,,,,,34.48275862068966,-0.386,-0.651,0.652
1970-01-01 00:00:00.000089576,1755597882186,22.81,-44.46,-2.14,,,,,,34.48275862068966,-0.384,-0.65,0.655
1970-01-01 00:00:00.000089606,1755597882188,22.8,-44.45,-2.16,,,,,,33.333333333333336,-0.385,-0.65,0.655
1970-01-01 00:00:00.000089665,1755597882192,22.83,-44.45,-2.14,,,,,,33.333333333333336,-0.384,-0.653,0.654
1970-01-01 00:00:00.000089694,1755597882194,22.81,-44.46,-2.14,,,,,,34.48275862068966,-0.384,-0.652,0.654
1970-01-01 00:00:00.000089724,1755597882196,22.81,-44.44,-2.12,,,,,,33.333333333333336,-0.385,-0.654,0.654
1970-01-01 00:00:00.000089753,1755597882198,22.83,-44.44,-2.07,,,,,,34.48275862068966,-0.383,-0.652,0.654
1970-01-01 00:00:00.000089782,1755597882200,22.83,-44.45,-2.08,,,,,,34.48275862068966,-0.382,-0.649,0.655
1970-01-01 00:00:00.000089812,1755597882202,22.81,-44.45,-2.1,,,,,,33.333333333333336,-0.383,-0.649,0.655
1970-01-01 00:00:00.000089842,1755597882204,22.8,-44.43,-2.09,,,,,,33.333333333333336,-0.385,-0.65,0.654
1970-01-01 00:00:00.000089871,1755597882206,22.82,-44.44,-2.05,,,,,,34.48275862068966,-0.384,-0.649,0.654
1970-01-01 00:00:00.000089891,1755597882209,22.83,-44.45,-2.04,,,,,,50.0,-0.381,-0.648,0.655
1970-01-01 00:00:00.000089921,1755597882210,22.8,-44.43,-2.07,,,,,,33.333333333333336,-0.382,-0.649,0.655
1970-01-01 00:00:00.000089950,1755597882213,22.8,-44.43,-2.07,,,,,,34.48275862068966,-0.385,-0.652,0.655
1970-01-01 00:00:00.000089980,1755597882215,22.84,-44.42,-2.03,,,,,,33.333333333333336,-0.387,-0.651,0.655
1970-01-01 00:00:00.000090009,1755597882217,22.83,-44.41,-2.02,,,,,,34.48275862068966,-0.385,-0.649,0.652
1970-01-01 00:00:00.000090039,1755597882219,22.83,-44.42,-2.03,,,,,,33.333333333333336,-0.386,-0.65,0.651
1970-01-01 00:00:00.000090068,1755597882221,22.83,-44.42,-2.01,,,,,,34.48275862068966,-0.386,-0.651,0.65
1970-01-01 00:00:00.000090098,1755597882223,22.85,-44.43,-1.97,,,,,,33.333333333333336,-0.385,-0.65,0.651
1970-01-01 00:00:00.000090128,1755597882225,22.84,-44.44,-1.98,,,,,,33.333333333333336,-0.385,-0.647,0.653
1970-01-01 00:00:00.000090187,1755597882230,22.82,-44.43,-1.96,,,,,,33.333333333333336,-0.387,-0.649,0.654
1970-01-01 00:00:00.000090216,1755597882231,22.84,-44.44,-1.94,,,,,,34.48275862068966,-0.385,-0.65,0.655
1970-01-01 00:00:00.000090246,1755597882233,22.83,-44.42,-1.92,,,,,,33.333333333333336,-0.384,-0.651,0.656
1970-01-01 00:00:00.000090275,1755597882235,22.82,-44.41,-1.93,,,,,,34.48275862068966,-0.383,-0.648,0.654
1970-01-01 00:00:00.000090295,1755597882238,22.82,-44.42,-1.94,,,,,,50.0,-0.387,-0.646,0.653
1970-01-01 00:00:00.000090325,1755597882240,22.81,-44.43,-1.93,,,,,,33.333333333333336,-0.39,-0.649,0.654
1970-01-01 00:00:00.000090354,1755597882242,22.82,-44.43,-1.88,,,,,,34.48275862068966,-0.389,-0.648,0.655
1970-01-01 00:00:00.000090384,1755597882243,22.84,-44.42,-1.86,,,,,,33.333333333333336,-0.386,-0.649,0.656
1970-01-01 00:00:00.000090413,1755597882246,22.83,-44.42,-1.86,,,,,,34.48275862068966,-0.384,-0.649,0.654
1970-01-01 00:00:00.000090443,1755597882248,22.82,-44.42,-1.86,,,,,,33.333333333333336,-0.382,-0.648,0.654
1970-01-01 00:00:00.000090472,1755597882250,22.84,-44.43,-1.87,,,,,,34.48275862068966,-0.383,-0.647,0.655
1970-01-01 00:00:00.000090502,1755597882252,22.85,-44.43,-1.88,,,,,,33.333333333333336,-0.386,-0.647,0.656
1970-01-01 00:00:00.000090531,1755597882254,22.85,-44.44,-1.89,,,,,,34.48275862068966,-0.387,-0.645,0.654
1970-01-01 00:00:00.000090552,1755597882256,22.87,-44.47,-1.89,,,,,,47.61904761904762,-0.389,-0.645,0.655
1970-01-01 00:00:00.000090581,1755597882258,22.88,-44.47,-1.89,,,,,,34.48275862068966,-0.389,-0.645,0.656
1970-01-01 00:00:00.000090640,1755597882262,22.88,-44.52,-1.87,,,,,,34.48275862068966,-0.388,-0.648,0.653
1970-01-01 00:00:00.000090670,1755597882264,22.89,-44.53,-1.85,,,,,,33.333333333333336,-0.385,-0.649,0.655
1970-01-01 00:00:00.000090729,1755597882268,22.91,-44.55,-1.86,,,,,,33.333333333333336,-0.382,-0.648,0.659
1970-01-01 00:00:00.000090758,1755597882270,22.95,-44.54,-1.89,,,,,,34.48275862068966,-0.385,-0.652,0.656
1970-01-01 00:00:00.000090788,1755597882272,22.99,-44.55,-1.89,,,,,,33.333333333333336,-0.39,-0.651,0.65
1970-01-01 00:00:00.000090817,1755597882274,23.01,-44.56,-1.89,,,,,,34.48275862068966,-0.395,-0.647,0.645
1970-01-01 00:00:00.000090877,1755597882278,22.97,-44.67,-1.92,,,,,,33.333333333333336,-0.4,-0.651,0.644
1970-01-01 00:00:00.000090936,1755597882282,23.03,-44.71,-1.84,,,,,,33.333333333333336,-0.388,-0.654,0.65
1970-01-01 00:00:00.000090956,1755597882284,23.05,-44.71,-1.83,,,,,,50.0,-0.385,-0.655,0.652
1970-01-01 00:00:00.000090985,1755597882285,23.01,-44.73,-1.87,,,,,,34.48275862068966,-0.385,-0.653,0.65
1970-01-01 00:00:00.000091015,1755597882287,22.99,-44.74,-1.89,,,,,,33.333333333333336,-0.388,-0.652,0.65
1970-01-01 00:00:00.000091044,1755597882290,23.05,-44.75,-1.89,,,,,,34.48275862068966,-0.39,-0.651,0.652
1970-01-01 00:00:00.000091074,1755597882292,23.04,-44.75,-1.9,,,,,,33.333333333333336,-0.39,-0.65,0.652
1970-01-01 00:00:00.000091133,1755597882296,23.03,-44.74,-1.93,,,,,,33.333333333333336,-0.388,-0.652,0.652
1970-01-01 00:00:00.000091221,1755597882301,23.02,-44.76,-1.94,,,,,,34.48275862068966,-0.385,-0.651,0.65
1970-01-01 00:00:00.000091251,1755597882330,23.02,-44.78,-1.94,,,,,,33.333333333333336,-0.387,-0.651,0.652
1970-01-01 00:00:00.000091280,1755597882360,23.03,-44.82,-1.96,,,,,,34.48275862068966,-0.387,-0.649,0.65
1970-01-01 00:00:00.000091310,1755597882389,23.02,-44.84,-1.98,,,,,,33.333333333333336,-0.389,-0.65,0.65
1970-01-01 00:00:00.000091339,1755597882419,23.01,-44.86,-1.98,,,,,,34.48275862068966,-0.391,-0.653,0.649
1970-01-01 00:00:00.000091369,1755597882449,23.04,-44.87,-1.95,,,,,,33.333333333333336,-0.391,-0.655,0.648
1970-01-01 00:00:00.000091399,1755597882479,23.05,-44.87,-1.93,,,,,,33.333333333333336,-0.389,-0.655,0.648
1970-01-01 00:00:00.000091428,1755597882508,23.02,-44.86,-1.94,,,,,,34.48275862068966,-0.389,-0.656,0.648
1970-01-01 00:00:00.000091458,1755597882538,23.02,-44.86,-1.96,,,,,,33.333333333333336,-0.389,-0.657,0.647
1970-01-01 00:00:00.000091487,1755597882567,23.03,-44.84,-1.94,,,,,,34.48275862068966,-0.389,-0.657,0.647
1970-01-01 00:00:00.000091517,1755597882597,23.03,-44.82,-1.92,,,,,,33.333333333333336,-0.388,-0.656,0.647
1970-01-01 00:00:00.000091577,1755597882656,22.98,-44.79,-1.95,,,,,,33.333333333333336,-0.389,-0.654,0.647
1970-01-01 00:00:00.000091606,1755597882686,22.98,-44.8,-1.94,,,,,,34.48275862068966,-0.391,-0.654,0.648
1970-01-01 00:00:00.000091636,1755597882715,22.97,-44.82,-1.92,,,,,,33.333333333333336,-0.39,-0.652,0.649
1970-01-01 00:00:00.000091665,1755597882745,22.91,-44.82,-1.94,,,,,,34.48275862068966,-0.389,-0.652,0.65
1970-01-01 00:00:00.000091695,1755597882774,22.89,-44.83,-1.93,,,,,,33.333333333333336,-0.389,-0.655,0.65
1970-01-01 00:00:00.000091754,1755597882833,22.9,-44.81,-1.88,,,,,,33.333333333333336,-0.384,-0.654,0.649
1970-01-01 00:00:00.000091783,1755597882863,22.84,-44.81,-1.91,,,,,,34.48275862068966,-0.385,-0.652,0.648
1970-01-01 00:00:00.000091803,1755597882883,22.81,-44.83,-1.92,,,,,,50.0,-0.387,-0.652,0.65
1970-01-01 00:00:00.000091833,1755597882912,22.84,-44.8,-1.89,,,,,,33.333333333333336,-0.387,-0.654,0.654
1970-01-01 00:00:00.000091862,1755597882942,22.86,-44.75,-1.87,,,,,,34.48275862068966,-0.386,-0.653,0.652
1970-01-01 00:00:00.000091892,1755597882972,22.85,-44.77,-1.89,,,,,,33.333333333333336,-0.384,-0.651,0.649
1970-01-01 00:00:00.000091921,1755597883001,22.85,-44.77,-1.91,,,,,,34.48275862068966,-0.383,-0.652,0.651
1970-01-01 00:00:00.000091951,1755597883031,22.84,-44.75,-1.93,,,,,,33.333333333333336,-0.385,-0.653,0.651
1970-01-01 00:00:00.000091981,1755597883060,22.83,-44.75,-1.92,,,,,,33.333333333333336,-0.388,-0.653,0.65
1970-01-01 00:00:00.000092010,1755597883090,22.86,-44.76,-1.88,,,,,,34.48275862068966,-0.387,-0.652,0.652
1970-01-01 00:00:00.000092040,1755597883119,22.86,-44.77,-1.88,,,,,,33.333333333333336,-0.387,-0.654,0.653
1970-01-01 00:00:00.000092069,1755597883149,22.84,-44.75,-1.86,,,,,,34.48275862068966,-0.387,-0.653,0.651
1970-01-01 00:00:00.000092099,1755597883178,22.87,-44.76,-1.84,,,,,,33.333333333333336,-0.385,-0.651,0.652
1970-01-01 00:00:00.000092128,1755597883208,22.82,-44.75,-1.88,,,,,,34.48275862068966,-0.385,-0.65,0.653
1970-01-01 00:00:00.000092157,1755597883237,22.76,-44.77,-1.91,,,,,,34.48275862068966,-0.387,-0.651,0.652
1970-01-01 00:00:00.000092187,1755597883267,22.76,-44.77,-1.88,,,,,,33.333333333333336,-0.39,-0.653,0.652
1970-01-01 00:00:00.000092217,1755597883296,22.79,-44.77,-1.86,,,,,,33.333333333333336,-0.387,-0.655,0.654
1970-01-01 00:00:00.000092246,1755597883326,22.77,-44.74,-1.85,,,,,,34.48275862068966,-0.383,-0.656,0.655
1970-01-01 00:00:00.000092276,1755597883356,22.79,-44.72,-1.87,,,,,,33.333333333333336,-0.38,-0.654,0.653
1970-01-01 00:00:00.000092305,1755597883385,22.77,-44.7,-1.9,,,,,,34.48275862068966,-0.382,-0.653,0.653
1970-01-01 00:00:00.000092335,1755597883415,22.76,-44.69,-1.93,,,,,,33.333333333333336,-0.385,-0.652,0.654
1970-01-01 00:00:00.000092365,1755597883444,22.78,-44.66,-1.93,,,,,,33.333333333333336,-0.387,-0.651,0.655
1970-01-01 00:00:00.000092394,1755597883474,22.77,-44.65,-1.93,,,,,,34.48275862068966,-0.388,-0.652,0.652
1970-01-01 00:00:00.000092424,1755597883503,22.76,-44.65,-1.91,,,,,,33.333333333333336,-0.388,-0.653,0.652
1970-01-01 00:00:00.000092453,1755597883533,22.78,-44.65,-1.87,,,,,,34.48275862068966,-0.385,-0.652,0.652
1970-01-01 00:00:00.000092483,1755597883562,22.77,-44.68,-1.87,,,,,,33.333333333333336,-0.384,-0.651,0.654
1970-01-01 00:00:00.000092512,1755597883592,22.73,-44.71,-1.88,,,,,,34.48275862068966,-0.385,-0.652,0.657
1970-01-01 00:00:00.000092571,1755597883651,22.74,-44.66,-1.85,,,,,,34.48275862068966,-0.385,-0.654,0.655
1970-01-01 00:00:00.000092600,1755597883680,22.73,-44.68,-1.85,,,,,,34.48275862068966,-0.385,-0.652,0.653
1970-01-01 00:00:00.000092630,1755597883710,22.72,-44.71,-1.86,,,,,,33.333333333333336,-0.385,-0.651,0.654
1970-01-01 00:00:00.000092660,1755597883739,22.69,-44.69,-1.86,,,,,,33.333333333333336,-0.386,-0.654,0.658
1970-01-01 00:00:00.000092689,1755597883769,22.71,-44.64,-1.84,,,,,,34.48275862068966,-0.385,-0.653,0.658
1970-01-01 00:00:00.000092719,1755597883799,22.7,-44.64,-1.83,,,,,,33.333333333333336,-0.384,-0.652,0.655
1970-01-01 00:00:00.000092749,1755597883828,22.69,-44.65,-1.83,,,,,,33.333333333333336,-0.384,-0.653,0.655
1970-01-01 00:00:00.000092778,1755597883858,22.69,-44.62,-1.81,,,,,,34.48275862068966,-0.384,-0.653,0.656
1970-01-01 00:00:00.000092807,1755597883887,22.7,-44.61,-1.8,,,,,,34.48275862068966,-0.384,-0.653,0.655
1970-01-01 00:00:00.000092837,1755597883917,22.68,-44.62,-1.79,,,,,,33.333333333333336,-0.384,-0.652,0.654
1970-01-01 00:00:00.000092867,1755597883947,22.69,-44.61,-1.76,,,,,,33.333333333333336,-0.384,-0.651,0.657
1970-01-01 00:00:00.000092896,1755597883976,22.7,-44.6,-1.76,,,,,,34.48275862068966,-0.384,-0.652,0.657
1970-01-01 00:00:00.000092926,1755597884006,22.67,-44.59,-1.77,,,,,,33.333333333333336,-0.385,-0.651,0.655
1970-01-01 00:00:00.000092956,1755597884035,22.69,-44.58,-1.74,,,,,,33.333333333333336,-0.385,-0.65,0.654
1970-01-01 00:00:00.000092985,1755597884065,22.68,-44.61,-1.76,,,,,,34.48275862068966,-0.384,-0.651,0.655
1970-01-01 00:00:00.000093015,1755597884095,22.64,-44.63,-1.79,,,,,,33.333333333333336,-0.383,-0.652,0.656
1970-01-01 00:00:00.000093044,1755597884124,22.67,-44.59,-1.78,,,,,,34.48275862068966,-0.382,-0.651,0.658
1970-01-01 00:00:00.000093074,1755597884154,22.71,-44.59,-1.79,,,,,,33.333333333333336,-0.382,-0.65,0.658
1970-01-01 00:00:00.000093104,1755597884184,22.69,-44.59,-1.84,,,,,,33.333333333333336,-0.382,-0.649,0.656
1970-01-01 00:00:00.000093134,1755597884213,22.66,-44.57,-1.89,,,,,,33.333333333333336,-0.385,-0.65,0.655
1970-01-01 00:00:00.000093163,1755597884243,22.7,-44.56,-1.89,,,,,,34.48275862068966,-0.389,-0.653,0.656
1970-01-01 00:00:00.000093193,1755597884273,22.71,-44.52,-1.85,,,,,,33.333333333333336,-0.387,-0.653,0.654
1970-01-01 00:00:00.000093222,1755597884302,22.7,-44.53,-1.84,,,,,,34.48275862068966,-0.382,-0.65,0.653
1970-01-01 00:00:00.000093252,1755597884332,22.65,-44.56,-1.89,,,,,,33.333333333333336,-0.381,-0.651,0.654
1970-01-01 00:00:00.000093281,1755597884361,22.64,-44.56,-1.9,,,,,,34.48275862068966,-0.383,-0.653,0.655
1970-01-01 00:00:00.000093311,1755597884391,22.66,-44.53,-1.86,,,,,,33.333333333333336,-0.383,-0.652,0.656
1970-01-01 00:00:00.000093341,1755597884421,22.66,-44.52,-1.85,,,,,,33.333333333333336,-0.382,-0.65,0.656
1970-01-01 00:00:00.000093370,1755597884451,22.66,-44.53,-1.86,,,,,,34.48275862068966,-0.382,-0.649,0.655
1970-01-01 00:00:00.000093400,1755597884480,22.71,-44.57,-1.85,,,,,,33.333333333333336,-0.382,-0.651,0.656
1970-01-01 00:00:00.000093430,1755597884509,22.77,-44.56,-1.8,,,,,,33.333333333333336,-0.383,-0.652,0.656
1970-01-01 00:00:00.000093489,1755597884569,22.87,-44.64,-1.78,,,,,,33.333333333333336,-0.386,-0.651,0.656
1970-01-01 00:00:00.000093519,1755597884598,22.87,-44.63,-1.78,,,,,,33.333333333333336,-0.386,-0.651,0.655
1970-01-01 00:00:00.000093548,1755597884628,22.86,-44.63,-1.76,,,,,,34.48275862068966,-0.387,-0.654,0.654
1970-01-01 00:00:00.000093578,1755597884658,22.9,-44.63,-1.71,,,,,,33.333333333333336,-0.385,-0.652,0.652
1970-01-01 00:00:00.000093608,1755597884687,22.86,-44.63,-1.73,,,,,,33.333333333333336,-0.385,-0.651,0.653
1970-01-01 00:00:00.000093637,1755597884717,22.82,-44.61,-1.76,,,,,,34.48275862068966,-0.386,-0.652,0.653
1970-01-01 00:00:00.000093667,1755597884746,22.86,-44.63,-1.75,,,,,,33.333333333333336,-0.388,-0.653,0.652
1970-01-01 00:00:00.000093696,1755597884776,22.88,-44.64,-1.72,,,,,,34.48275862068966,-0.387,-0.652,0.651
1970-01-01 00:00:00.000093726,1755597884805,22.83,-44.65,-1.74,,,,,,33.333333333333336,-0.385,-0.651,0.653
1970-01-01 00:00:00.000093755,1755597884835,22.83,-44.63,-1.75,,,,,,34.48275862068966,-0.386,-0.651,0.654
1970-01-01 00:00:00.000093785,1755597884865,22.85,-45.07,-1.74,,,,,,33.333333333333336,-0.387,-0.651,0.652
1970-01-01 00:00:00.000093814,1755597884894,22.84,-45.11,-1.75,,,,,,34.48275862068966,-0.388,-0.651,0.651
1970-01-01 00:00:00.000093844,1755597884923,22.84,-45.11,-1.73,,,,,,33.333333333333336,-0.388,-0.651,0.653
1970-01-01 00:00:00.000093873,1755597884953,22.85,-45.09,-1.73,,,,,,34.48275862068966,-0.386,-0.652,0.654
1970-01-01 00:00:00.000093903,1755597884983,22.85,-45.1,-1.73,,,,,,33.333333333333336,-0.386,-0.653,0.653
1970-01-01 00:00:00.000093932,1755597885012,22.85,-45.1,-1.72,,,,,,34.48275862068966,-0.386,-0.652,0.651
1970-01-01 00:00:00.000093962,1755597885041,22.85,-45.08,-1.73,,,,,,33.333333333333336,-0.386,-0.652,0.652
1970-01-01 00:00:00.000093991,1755597885071,22.85,-45.05,-1.73,,,,,,34.48275862068966,-0.386,-0.652,0.652
1970-01-01 00:00:00.000094021,1755597885100,22.85,-45.04,-1.73,,,,,,33.333333333333336,-0.388,-0.652,0.65
1970-01-01 00:00:00.000094050,1755597885130,22.86,-45.07,-1.71,,,,,,34.48275862068966,-0.388,-0.653,0.649
1970-01-01 00:00:00.000094080,1755597885160,22.87,-45.06,-1.69,,,,,,33.333333333333336,-0.386,-0.652,0.651
1970-01-01 00:00:00.000094109,1755597885189,22.86,-45.05,-1.69,,,,,,34.48275862068966,-0.385,-0.651,0.652
1970-01-01 00:00:00.000094139,1755597885218,22.87,-45.05,-1.7,,,,,,33.333333333333336,-0.386,-0.651,0.652
1970-01-01 00:00:00.000094168,1755597885248,22.87,-45.05,-1.71,,,,,,34.48275862068966,-0.388,-0.651,0.65
1970-01-01 00:00:00.000094198,1755597885278,22.88,-45.06,-1.69,,,,,,33.333333333333336,-0.388,-0.651,0.649
1970-01-01 00:00:00.000094228,1755597885307,22.92,-45.09,-1.65,,,,,,33.333333333333336,-0.386,-0.65,0.649
1970-01-01 00:00:00.000094257,1755597885337,23.05,-45.18,-1.6,,,,,,34.48275862068966,-0.39,-0.653,0.65
1970-01-01 00:00:00.000094287,1755597885367,23.0,-45.13,-1.56,,,,,,33.333333333333336,-0.392,-0.655,0.648
1970-01-01 00:00:00.000094316,1755597885396,23.0,-45.14,-1.52,,,,,,34.48275862068966,-0.39,-0.653,0.647
1970-01-01 00:00:00.000094346,1755597885426,23.0,-45.11,-1.49,,,,,,33.333333333333336,-0.388,-0.653,0.651
1970-01-01 00:00:00.000094375,1755597885455,22.96,-45.02,-1.49,,,,,,34.48275862068966,-0.39,-0.654,0.65
1970-01-01 00:00:00.000094405,1755597885485,22.88,-44.95,-1.46,,,,,,33.333333333333336,-0.393,-0.653,0.647
1970-01-01 00:00:00.000094434,1755597885514,22.91,-44.94,-1.41,,,,,,34.48275862068966,-0.392,-0.651,0.644
1970-01-01 00:00:00.000094464,1755597885544,22.95,-44.97,-1.37,,,,,,33.333333333333336,-0.39,-0.651,0.647
1970-01-01 00:00:00.000094494,1755597885573,22.91,-44.96,-1.37,,,,,,33.333333333333336,-0.389,-0.65,0.648
1970-01-01 00:00:00.000094523,1755597885603,22.89,-44.95,-1.39,,,,,,34.48275862068966,-0.389,-0.649,0.649
1970-01-01 00:00:00.000094553,1755597885632,22.92,-44.97,-1.39,,,,,,33.333333333333336,-0.39,-0.649,0.65
1970-01-01 00:00:00.000094582,1755597885662,22.95,-44.97,-1.38,,,,,,34.48275862068966,-0.39,-0.65,0.649
1970-01-01 00:00:00.000094612,1755597885691,22.96,-44.98,-1.38,,,,,,33.333333333333336,-0.39,-0.649,0.648
1970-01-01 00:00:00.000094641,1755597885721,22.96,-45.01,-1.39,,,,,,34.48275862068966,-0.389,-0.649,0.65
1970-01-01 00:00:00.000094671,1755597885751,22.96,-45.01,-1.4,,,,,,33.333333333333336,-0.391,-0.651,0.651
1970-01-01 00:00:00.000094700,1755597885780,22.99,-44.99,-1.38,,,,,,34.48275862068966,-0.391,-0.652,0.649
1970-01-01 00:00:00.000094730,1755597885810,22.99,-45.01,-1.37,,,,,,33.333333333333336,-0.391,-0.65,0.647
1970-01-01 00:00:00.000094789,1755597885869,23.0,-45.0,-1.38,,,,,,34.48275862068966,-0.391,-0.651,0.651
1970-01-01 00:00:00.000094819,1755597885899,22.99,-44.99,-1.39,,,,,,33.333333333333336,-0.392,-0.652,0.649
1970-01-01 00:00:00.000094849,1755597885929,23.0,-45.01,-1.38,,,,,,33.333333333333336,-0.393,-0.652,0.647
1970-01-01 00:00:00.000094908,1755597885988,23.0,-45.0,-1.33,,,,,,34.48275862068966,-0.394,-0.651,0.648
1970-01-01 00:00:00.000094938,1755597886017,22.99,-45.0,-1.33,,,,,,33.333333333333336,-0.392,-0.649,0.649
1970-01-01 00:00:00.000094967,1755597886047,22.99,-44.99,-1.34,,,,,,34.48275862068966,-0.391,-0.65,0.651
1970-01-01 00:00:00.000094997,1755597886076,22.99,-44.96,-1.33,,,,,,33.333333333333336,-0.392,-0.65,0.651
1970-01-01 00:00:00.000095026,1755597886106,23.0,-44.97,-1.33,,,,,,34.48275862068966,-0.392,-0.65,0.65
1970-01-01 00:00:00.000095085,1755597886165,22.99,-44.97,-1.34,,,,,,34.48275862068966,-0.392,-0.651,0.65
1970-01-01 00:00:00.000095115,1755597886194,23.02,-44.98,-1.33,,,,,,33.333333333333336,-0.392,-0.65,0.651
1970-01-01 00:00:00.000095144,1755597886224,23.04,-44.94,-1.32,,,,,,34.48275862068966,-0.39,-0.651,0.653
1970-01-01 00:00:00.000095174,1755597886253,23.05,-44.92,-1.34,,,,,,33.333333333333336,-0.39,-0.652,0.652
1970-01-01 00:00:00.000095233,1755597886313,23.03,-44.91,-1.36,,,,,,33.333333333333336,-0.394,-0.65,0.648
1970-01-01 00:00:00.000095263,1755597886342,23.03,-44.93,-1.34,,,,,,33.333333333333336,-0.396,-0.65,0.649
1970-01-01 00:00:00.000095292,1755597886372,23.04,-44.92,-1.32,,,,,,34.48275862068966,-0.394,-0.65,0.652
1970-01-01 00:00:00.000095322,1755597886402,23.04,-44.9,-1.32,,,,,,33.333333333333336,-0.391,-0.65,0.652
1970-01-01 00:00:00.000095381,1755597886461,23.03,-44.89,-1.35,,,,,,33.333333333333336,-0.391,-0.65,0.65
1970-01-01 00:00:00.000095440,1755597886520,23.04,-44.89,-1.33,,,,,,33.333333333333336,-0.393,-0.649,0.649
1970-01-01 00:00:00.000095469,1755597886549,23.0,-44.9,-1.34,,,,,,34.48275862068966,-0.393,-0.651,0.649
1970-01-01 00:00:00.000095499,1755597886579,23.02,-44.89,-1.31,,,,,,33.333333333333336,-0.393,-0.652,0.65
1970-01-01 00:00:00.000095528,1755597886608,23.01,-44.86,-1.29,,,,,,34.48275862068966,-0.392,-0.651,0.65
1970-01-01 00:00:00.000095558,1755597886638,22.97,-44.83,-1.3,,,,,,33.333333333333336,-0.392,-0.651,0.649
1970-01-01 00:00:00.000095588,1755597886667,22.95,-44.82,-1.28,,,,,,33.333333333333336,-0.392,-0.652,0.648
1970-01-01 00:00:00.000095617,1755597886697,22.95,-44.8,-1.25,,,,,,34.48275862068966,-0.393,-0.653,0.65
1970-01-01 00:00:00.000095647,1755597886727,22.93,-44.77,-1.23,,,,,,33.333333333333336,-0.393,-0.653,0.65
1970-01-01 00:00:00.000095706,1755597886785,22.95,-44.76,-1.21,,,,,,33.333333333333336,-0.387,-0.647,0.651
1970-01-01 00:00:00.000095735,1755597886815,22.94,-44.73,-1.24,,,,,,34.48275862068966,-0.386,-0.647,0.655
1970-01-01 00:00:00.000095765,1755597886845,22.94,-44.71,-1.28,,,,,,33.333333333333336,-0.388,-0.647,0.653
1970-01-01 00:00:00.000095794,1755597886874,22.95,-44.7,-1.28,,,,,,34.48275862068966,-0.392,-0.648,0.651
1970-01-01 00:00:00.000095853,1755597886933,22.96,-44.73,-1.25,,,,,,34.48275862068966,-0.39,-0.647,0.652
1970-01-01 00:00:00.000095883,1755597886963,22.93,-44.71,-1.27,,,,,,33.333333333333336,-0.388,-0.647,0.653
1970-01-01 00:00:00.000095912,1755597886992,22.91,-44.72,-1.28,,,,,,34.48275862068966,-0.389,-0.648,0.652
1970-01-01 00:00:00.000095942,1755597887021,22.94,-44.75,-1.27,,,,,,33.333333333333336,-0.389,-0.646,0.653
1970-01-01 00:00:00.000096001,1755597887080,22.95,-44.72,-1.29,,,,,,33.333333333333336,-0.389,-0.645,0.653
1970-01-01 00:00:00.000096030,1755597887110,22.94,-44.75,-1.31,,,,,,34.48275862068966,-0.389,-0.646,0.652
1970-01-01 00:00:00.000096060,1755597887140,22.97,-44.77,-1.31,,,,,,33.333333333333336,-0.39,-0.648,0.652
1970-01-01 00:00:00.000096089,1755597887169,22.96,-44.77,-1.31,,,,,,34.48275862068966,-0.392,-0.651,0.652
1970-01-01 00:00:00.000096119,1755597887198,22.97,-44.79,-1.3,,,,,,33.333333333333336,-0.39,-0.651,0.652
1970-01-01 00:00:00.000096148,1755597887228,22.99,-44.78,-1.29,,,,,,34.48275862068966,-0.389,-0.65,0.653
1970-01-01 00:00:00.000096178,1755597887257,22.97,-44.76,-1.3,,,,,,33.333333333333336,-0.389,-0.65,0.654
1970-01-01 00:00:00.000096207,1755597887288,22.93,-44.75,-1.31,,,,,,34.48275862068966,-0.389,-0.651,0.653
1970-01-01 00:00:00.000096228,1755597887307,22.94,-44.74,-1.3,,,,,,47.61904761904762,-0.389,-0.652,0.652
1970-01-01 00:00:00.000096257,1755597887337,22.97,-44.75,-1.28,,,,,,34.48275862068966,-0.39,-0.65,0.653
1970-01-01 00:00:00.000096287,1755597887366,22.96,-44.74,-1.29,,,,,,33.333333333333336,-0.389,-0.649,0.653
1970-01-01 00:00:00.000096316,1755597887396,22.95,-44.73,-1.29,,,,,,34.48275862068966,-0.388,-0.65,0.653
1970-01-01 00:00:00.000096346,1755597887425,22.97,-44.73,-1.28,,,,,,33.333333333333336,-0.388,-0.651,0.653
1970-01-01 00:00:00.000096375,1755597887455,22.98,-44.73,-1.27,,,,,,34.48275862068966,-0.389,-0.652,0.653
1970-01-01 00:00:00.000096405,1755597887485,22.99,-44.72,-1.27,,,,,,33.333333333333336,-0.389,-0.652,0.653
1970-01-01 00:00:00.000096434,1755597887514,22.99,-44.71,-1.27,,,,,,34.48275862068966,-0.39,-0.652,0.651
1970-01-01 00:00:00.000096464,1755597887544,22.99,-44.72,-1.25,,,,,,33.333333333333336,-0.39,-0.65,0.651
1970-01-01 00:00:00.000096493,1755597887573,22.98,-44.72,-1.26,,,,,,34.48275862068966,-0.39,-0.649,0.653
1970-01-01 00:00:00.000096523,1755597887603,22.96,-44.7,-1.28,,,,,,33.333333333333336,-0.389,-0.65,0.654
1970-01-01 00:00:00.000096552,1755597887632,22.97,-44.69,-1.27,,,,,,34.48275862068966,-0.389,-0.651,0.655
1970-01-01 00:00:00.000096582,1755597887661,23.0,-44.68,-1.25,,,,,,33.333333333333336,-0.389,-0.65,0.653
1970-01-01 00:00:00.000096611,1755597887691,22.98,-44.69,-1.26,,,,,,34.48275862068966,-0.389,-0.65,0.651
1970-01-01 00:00:00.000096641,1755597887721,22.97,-44.71,-1.26,,,,,,33.333333333333336,-0.39,-0.648,0.65
1970-01-01 00:00:00.000096670,1755597887750,22.98,-44.73,-1.26,,,,,,34.48275862068966,-0.39,-0.649,0.653
1970-01-01 00:00:00.000096730,1755597887810,22.96,-44.67,-1.26,,,,,,33.333333333333336,-0.39,-0.651,0.653
1970-01-01 00:00:00.000096759,1755597887839,22.98,-44.65,-1.23,,,,,,34.48275862068966,-0.391,-0.651,0.651
1970-01-01 00:00:00.000096789,1755597887868,22.96,-44.68,-1.23,,,,,,33.333333333333336,-0.391,-0.65,0.651
1970-01-01 00:00:00.000096818,1755597887898,22.94,-44.65,-1.21,,,,,,34.48275862068966,-0.389,-0.649,0.653
1970-01-01 00:00:00.000096877,1755597887957,22.93,-44.63,-1.23,,,,,,34.48275862068966,-0.388,-0.649,0.654
1970-01-01 00:00:00.000096907,1755597887986,22.89,-44.62,-1.24,,,,,,33.333333333333336,-0.39,-0.649,0.653
1970-01-01 00:00:00.000096936,1755597888016,22.88,-44.63,-1.23,,,,,,34.48275862068966,-0.39,-0.648,0.653
1970-01-01 00:00:00.000096966,1755597888046,22.86,-44.63,-1.23,,,,,,33.333333333333336,-0.388,-0.65,0.655
1970-01-01 00:00:00.000096996,1755597888076,22.86,-44.6,-1.21,,,,,,33.333333333333336,-0.388,-0.651,0.656
1970-01-01 00:00:00.000097025,1755597888105,22.86,-44.59,-1.18,,,,,,34.48275862068966,-0.386,-0.65,0.655
1970-01-01 00:00:00.000097055,1755597888135,22.88,-44.6,-1.18,,,,,,33.333333333333336,-0.385,-0.648,0.655
1970-01-01 00:00:00.000097084,1755597888164,22.86,-44.58,-1.2,,,,,,34.48275862068966,-0.387,-0.646,0.654
1970-01-01 00:00:00.000097114,1755597888194,22.85,-44.6,-1.21,,,,,,33.333333333333336,-0.389,-0.646,0.653
1970-01-01 00:00:00.000097143,1755597888223,22.85,-44.59,-1.2,,,,,,34.48275862068966,-0.389,-0.646,0.652
1970-01-01 00:00:00.000097173,1755597888253,22.84,-44.63,-1.22,,,,,,33.333333333333336,-0.387,-0.646,0.653
1970-01-01 00:00:00.000097202,1755597888282,22.82,-44.64,-1.24,,,,,,34.48275862068966,-0.386,-0.649,0.658
1970-01-01 00:00:00.000097232,1755597888312,22.86,-44.62,-1.24,,,,,,33.333333333333336,-0.387,-0.651,0.659
1970-01-01 00:00:00.000097261,1755597888341,22.9,-44.58,-1.23,,,,,,34.48275862068966,-0.387,-0.649,0.655
1970-01-01 00:00:00.000097291,1755597888371,22.88,-44.58,-1.24,,,,,,33.333333333333336,-0.388,-0.649,0.652
1970-01-01 00:00:00.000097321,1755597888400,22.87,-44.6,-1.24,,,,,,33.333333333333336,-0.388,-0.65,0.655
1970-01-01 00:00:00.000097350,1755597888430,22.9,-44.59,-1.22,,,,,,34.48275862068966,-0.386,-0.652,0.659
1970-01-01 00:00:00.000097380,1755597888460,22.94,-44.54,-1.21,,,,,,33.333333333333336,-0.384,-0.65,0.658
1970-01-01 00:00:00.000097409,1755597888489,22.95,-44.53,-1.24,,,,,,34.48275862068966,-0.385,-0.647,0.654
1970-01-01 00:00:00.000097439,1755597888518,22.96,-44.56,-1.25,,,,,,33.333333333333336,-0.388,-0.646,0.653
1970-01-01 00:00:00.000097468,1755597888548,22.96,-44.57,-1.26,,,,,,34.48275862068966,-0.392,-0.649,0.655
1970-01-01 00:00:00.000097498,1755597888577,23.0,-44.56,-1.23,,,,,,33.333333333333336,-0.392,-0.65,0.655
1970-01-01 00:00:00.000097527,1755597888607,23.02,-44.54,-1.19,,,,,,34.48275862068966,-0.39,-0.65,0.653
1970-01-01 00:00:00.000097557,1755597888636,23.02,-44.55,-1.18,,,,,,33.333333333333336,-0.388,-0.649,0.653
1970-01-01 00:00:00.000097586,1755597888666,23.01,-44.55,-1.19,,,,,,34.48275862068966,-0.388,-0.649,0.655
1970-01-01 00:00:00.000097616,1755597888695,22.99,-44.52,-1.18,,,,,,33.333333333333336,-0.39,-0.649,0.655
1970-01-01 00:00:00.000097645,1755597888725,22.99,-44.5,-1.15,,,,,,34.48275862068966,-0.39,-0.648,0.654
1970-01-01 00:00:00.000097675,1755597888755,23.0,-44.51,-1.13,,,,,,33.333333333333336,-0.39,-0.647,0.654
1970-01-01 00:00:00.000097734,1755597888814,22.99,-44.51,-1.1,,,,,,33.333333333333336,-0.39,-0.651,0.657
1970-01-01 00:00:00.000097764,1755597888844,23.03,-44.45,-1.05,,,,,,33.333333333333336,-0.39,-0.651,0.657
1970-01-01 00:00:00.000097793,1755597888873,23.05,-44.41,-1.0,,,,,,34.48275862068966,-0.391,-0.645,0.65
1970-01-01 00:00:00.000097823,1755597888903,23.0,-44.43,-1.04,,,,,,33.333333333333336,-0.392,-0.641,0.648
1970-01-01 00:00:00.000097853,1755597888933,22.99,-44.49,-1.04,,,,,,33.333333333333336,-0.391,-0.642,0.654
1970-01-01 00:00:00.000097882,1755597888962,23.02,-44.52,-1.03,,,,,,34.48275862068966,-0.389,-0.645,0.66
1970-01-01 00:00:00.000097912,1755597888992,23.03,-44.48,-1.05,,,,,,33.333333333333336,-0.386,-0.645,0.658
1970-01-01 00:00:00.000097942,1755597889021,23.02,-44.47,-1.1,,,,,,33.333333333333336,-0.387,-0.646,0.653
1970-01-01 00:00:00.000097971,1755597889051,23.02,-44.51,-1.12,,,,,,34.48275862068966,-0.392,-0.647,0.651
1970-01-01 00:00:00.000098001,1755597889080,23.01,-44.57,-1.11,,,,,,33.333333333333336,-0.393,-0.647,0.653
1970-01-01 00:00:00.000098030,1755597889110,23.0,-44.58,-1.09,,,,,,34.48275862068966,-0.392,-0.648,0.656
1970-01-01 00:00:00.000098060,1755597889139,23.0,-44.54,-1.06,,,,,,33.333333333333336,-0.39,-0.65,0.657
1970-01-01 00:00:00.000098089,1755597889169,22.99,-44.53,-1.06,,,,,,34.48275862068966,-0.387,-0.649,0.655
