timestamp_ms,recv_timestamp_ms,pitch,roll,yaw,flex1,flex2,flex3,flex4,flex5,sampling_hz,accel_x,accel_y,accel_z
1970-01-01 00:00:00.000098119,1755597891784,22.95,-44.52,-1.08,765.0,774.0,832.0,885.0,857.0,33.333333333333336,-0.384,-0.647,0.655
1970-01-01 00:00:00.000098148,1755597891786,22.93,-44.49,-1.13,,,,,,34.48275862068966,-0.383,-0.646,0.655
1970-01-01 00:00:00.000098178,1755597891788,22.94,-44.5,-1.16,,,,,,33.333333333333336,-0.388,-0.648,0.655
1970-01-01 00:00:00.000098207,1755597891790,22.98,-44.49,-1.16,,,,,,34.48275862068966,-0.39,-0.649,0.655
1970-01-01 00:00:00.000098237,1755597891792,23.0,-44.45,-1.16,,,,,,33.333333333333336,-0.39,-0.648,0.651
1970-01-01 00:00:00.000098266,1755597891794,22.99,-44.46,-1.17,,,,,,34.48275862068966,-0.391,-0.65,0.65
1970-01-01 00:00:00.000098296,1755597891796,22.99,-44.46,-1.15,,,,,,33.333333333333336,-0.391,-0.652,0.652
1970-01-01 00:00:00.000098326,1755597891798,23.02,-44.45,-1.11,,,,,,33.333333333333336,-0.389,-0.65,0.655
1970-01-01 00:00:00.000098355,1755597891800,23.0,-44.41,-1.12,,,,,,34.48275862068966,-0.387,-0.648,0.655
1970-01-01 00:00:00.000098385,1755597891802,22.97,-44.39,-1.15,,,,,,33.333333333333336,-0.388,-0.647,0.653
1970-01-01 00:00:00.000098414,1755597891805,22.97,-44.41,-1.15,,,,,,34.48275862068966,-0.388,-0.647,0.652
1970-01-01 00:00:00.000098443,1755597891807,22.97,-44.43,-1.15,,,,,,34.48275862068966,-0.389,-0.649,0.653
1970-01-01 00:00:00.000098473,1755597891809,22.93,-44.4,-1.14,,,,,,33.333333333333336,-0.388,-0.648,0.652
1970-01-01 00:00:00.000098502,1755597891811,22.93,-44.42,-1.14,,,,,,34.48275862068966,-0.388,-0.649,0.654
1970-01-01 00:00:00.000098561,1755597891815,22.94,-44.41,-1.1,,,,,,34.48275862068966,-0.387,-0.646,0.655
1970-01-01 00:00:00.000098591,1755597891817,22.91,-44.4,-1.12,,,,,,33.333333333333336,-0.386,-0.646,0.655
1970-01-01 00:00:00.000098620,1755597891819,22.95,-44.4,-1.13,,,,,,34.48275862068966,-0.386,-0.648,0.655
1970-01-01 00:00:00.000098679,1755597891823,23.0,-44.42,-1.14,,,,,,34.48275862068966,-0.387,-0.649,0.654
1970-01-01 00:00:00.000098709,1755597891825,23.0,-44.42,-1.15,,,,,,33.333333333333336,-0.388,-0.646,0.655
1970-01-01 00:00:00.000098738,1755597891827,23.01,-44.4,-1.61,,,,,,34.48275862068966,-0.388,-0.645,0.657
1970-01-01 00:00:00.000098797,1755597891831,23.03,-44.42,-1.58,,,,,,34.48275862068966,-0.389,-0.647,0.651
1970-01-01 00:00:00.000098856,1755597891836,22.96,-44.46,-1.63,,,,,,34.48275862068966,-0.386,-0.647,0.654
1970-01-01 00:00:00.000098886,1755597891837,22.96,-44.48,-1.64,,,,,,33.333333333333336,-0.388,-0.649,0.655
1970-01-01 00:00:00.000098915,1755597891839,22.99,-44.47,-1.62,,,,,,34.48275862068966,-0.39,-0.65,0.654
1970-01-01 00:00:00.000098944,1755597891841,22.98,-44.46,-1.61,,,,,,34.48275862068966,-0.389,-0.651,0.653
1970-01-01 00:00:00.000098974,1755597891843,22.98,-44.46,-1.6,,,,,,33.333333333333336,-0.388,-0.65,0.651
1970-01-01 00:00:00.000099004,1755597891845,22.94,-44.47,-1.62,,,,,,33.333333333333336,-0.388,-0.649,0.651
1970-01-01 00:00:00.000099033,1755597891847,22.93,-44.49,-1.61,,,,,,34.48275862068966,-0.387,-0.651,0.655
1970-01-01 00:00:00.000099092,1755597891851,22.96,-44.42,-1.6,,,,,,34.48275862068966,-0.385,-0.649,0.652
1970-01-01 00:00:00.000099121,1755597891853,22.93,-44.44,-1.61,,,,,,34.48275862068966,-0.388,-0.647,0.651
1970-01-01 00:00:00.000099181,1755597891857,22.93,-44.46,-1.59,,,,,,33.333333333333336,-0.387,-0.647,0.655
1970-01-01 00:00:00.000099210,1755597891859,22.93,-44.44,-1.6,,,,,,34.48275862068966,-0.386,-0.648,0.655
1970-01-01 00:00:00.000099240,1755597891861,22.92,-44.44,-1.61,,,,,,33.333333333333336,-0.386,-0.647,0.653
1970-01-01 00:00:00.000099270,1755597891863,22.91,-44.46,-1.62,,,,,,33.333333333333336,-0.387,-0.646,0.652
1970-01-01 00:00:00.000099299,1755597891866,22.89,-44.48,-1.64,,,,,,34.48275862068966,-0.39,-0.648,0.653
1970-01-01 00:00:00.000099329,1755597891867,22.88,-44.5,-1.62,,,,,,33.333333333333336,-0.389,-0.65,0.654
1970-01-01 00:00:00.000099358,1755597891870,22.92,-44.49,-1.6,,,,,,34.48275862068966,-0.386,-0.649,0.655
1970-01-01 00:00:00.000099387,1755597891872,22.89,-44.45,-1.62,,,,,,34.48275862068966,-0.385,-0.651,0.654
1970-01-01 00:00:00.000099417,1755597891874,22.85,-44.43,-1.62,,,,,,33.333333333333336,-0.386,-0.652,0.653
1970-01-01 00:00:00.000099447,1755597891876,22.86,-44.4,-1.59,,,,,,33.333333333333336,-0.387,-0.648,0.654
1970-01-01 00:00:00.000099467,1755597891878,22.87,-44.38,-1.57,,,,,,50.0,-0.386,-0.645,0.654
1970-01-01 00:00:00.000099496,1755597891880,22.81,-44.38,-1.6,,,,,,34.48275862068966,-0.386,-0.645,0.654
1970-01-01 00:00:00.000099526,1755597891882,22.78,-44.38,-1.6,,,,,,33.333333333333336,-0.387,-0.646,0.655
1970-01-01 00:00:00.000099556,1755597891885,22.82,-44.36,-1.54,,,,,,33.333333333333336,-0.386,-0.648,0.656
1970-01-01 00:00:00.000099615,1755597891889,22.73,-44.35,-1.56,,,,,,33.333333333333336,-0.383,-0.648,0.654
1970-01-01 00:00:00.000099644,1755597891891,22.74,-44.36,-1.54,,,,,,34.48275862068966,-0.385,-0.647,0.655
1970-01-01 00:00:00.000099674,1755597891893,22.73,-44.36,-1.51,,,,,,33.333333333333336,-0.387,-0.648,0.658
1970-01-01 00:00:00.000099703,1755597891895,22.7,-44.34,-1.49,,,,,,34.48275862068966,-0.386,-0.649,0.657
1970-01-01 00:00:00.000099733,1755597891897,22.71,-44.36,-1.46,,,,,,33.333333333333336,-0.383,-0.647,0.656
1970-01-01 00:00:00.000099762,1755597891899,22.72,-44.4,-1.46,,,,,,34.48275862068966,-0.382,-0.645,0.657
1970-01-01 00:00:00.000099792,1755597891901,22.69,-44.39,-1.48,,,,,,33.333333333333336,-0.385,-0.646,0.658
1970-01-01 00:00:00.000099821,1755597891903,22.7,-44.39,-1.47,,,,,,34.48275862068966,-0.387,-0.648,0.655
1970-01-01 00:00:00.000099851,1755597891905,22.74,-44.43,-1.44,,,,,,33.333333333333336,-0.386,-0.648,0.655
1970-01-01 00:00:00.000099881,1755597891907,22.75,-44.43,-1.43,,,,,,33.333333333333336,-0.385,-0.647,0.657
1970-01-01 00:00:00.000099910,1755597891909,22.7,-44.4,-1.45,,,,,,34.48275862068966,-0.384,-0.647,0.656
1970-01-01 00:00:00.000099940,1755597891911,22.7,-44.44,-1.47,,,,,,33.333333333333336,-0.384,-0.648,0.657
1970-01-01 00:00:00.000099969,1755597891913,22.73,-44.43,-1.46,,,,,,34.48275862068966,-0.385,-0.648,0.658
1970-01-01 00:00:00.000099999,1755597891915,22.74,-44.41,-1.46,,,,,,33.333333333333336,-0.383,-0.648,0.656
1970-01-01 00:00:00.000100028,1755597891917,22.71,-44.39,-1.47,,,,,,34.48275862068966,-0.382,-0.648,0.655
1970-01-01 00:00:00.000100058,1755597891918,22.73,-44.43,-1.48,,,,,,33.333333333333336,-0.383,-0.648,0.659
1970-01-01 00:00:00.000100088,1755597891920,22.74,-44.41,-1.49,,,,,,33.333333333333336,-0.384,-0.65,0.659
1970-01-01 00:00:00.000100117,1755597891923,22.72,-44.38,-1.5,,,,,,34.48275862068966,-0.385,-0.651,0.656
1970-01-01 00:00:00.000100147,1755597891924,22.75,-44.4,-1.48,,,,,,33.333333333333336,-0.384,-0.648,0.655
1970-01-01 00:00:00.000100176,1755597891926,22.73,-44.4,-1.51,,,,,,34.48275862068966,-0.385,-0.649,0.656
1970-01-01 00:00:00.000100206,1755597891928,22.7,-44.4,-1.52,,,,,,33.333333333333336,-0.385,-0.652,0.655
1970-01-01 00:00:00.000100235,1755597891930,22.73,-44.39,-1.49,,,,,,34.48275862068966,-0.383,-0.648,0.657
1970-01-01 00:00:00.000100265,1755597891932,22.74,-44.39,-1.5,,,,,,33.333333333333336,-0.382,-0.646,0.659
1970-01-01 00:00:00.000100295,1755597891933,22.72,-44.39,-1.54,,,,,,33.333333333333336,-0.381,-0.646,0.658
1970-01-01 00:00:00.000100324,1755597891936,22.71,-44.42,-1.57,,,,,,34.48275862068966,-0.384,-0.647,0.656
1970-01-01 00:00:00.000100354,1755597891938,22.73,-44.44,-1.58,,,,,,33.333333333333336,-0.387,-0.65,0.656
1970-01-01 00:00:00.000100383,1755597891940,22.73,-44.43,-1.56,,,,,,34.48275862068966,-0.384,-0.649,0.656
1970-01-01 00:00:00.000100413,1755597891941,22.73,-44.46,-1.57,,,,,,33.333333333333336,-0.382,-0.647,0.655
1970-01-01 00:00:00.000100442,1755597891943,22.74,-44.48,-1.6,,,,,,34.48275862068966,-0.383,-0.647,0.656
1970-01-01 00:00:00.000100472,1755597891946,22.71,-44.48,-1.64,,,,,,33.333333333333336,-0.384,-0.651,0.657
1970-01-01 00:00:00.000100502,1755597891948,22.7,-44.46,-1.64,,,,,,33.333333333333336,-0.386,-0.653,0.653
1970-01-01 00:00:00.000100531,1755597891950,22.73,-44.49,-1.6,,,,,,34.48275862068966,-0.383,-0.651,0.653
1970-01-01 00:00:00.000100561,1755597891952,22.71,-44.47,-1.61,,,,,,33.333333333333336,-0.38,-0.652,0.656
1970-01-01 00:00:00.000100591,1755597891954,22.68,-44.41,-1.62,,,,,,33.333333333333336,-0.382,-0.653,0.659
1970-01-01 00:00:00.000100621,1755597891955,22.69,-44.32,-1.56,,,,,,33.333333333333336,-0.384,-0.653,0.659
1970-01-01 00:00:00.000100650,1755597891957,22.74,-44.32,-1.49,,,,,,34.48275862068966,-0.383,-0.654,0.656
1970-01-01 00:00:00.000100680,1755597891960,22.8,-44.34,-1.44,,,,,,33.333333333333336,-0.379,-0.647,0.654
1970-01-01 00:00:00.000100700,1755597891961,22.79,-44.36,-1.44,,,,,,50.0,-0.379,-0.642,0.654
1970-01-01 00:00:00.000100720,1755597891964,22.77,-44.36,-1.46,,,,,,50.0,-0.381,-0.64,0.657
1970-01-01 00:00:00.000100750,1755597891966,22.8,-44.39,-1.47,,,,,,33.333333333333336,-0.388,-0.645,0.658
1970-01-01 00:00:00.000100779,1755597891968,22.89,-44.4,-1.41,,,,,,34.48275862068966,-0.389,-0.648,0.656
1970-01-01 00:00:00.000100809,1755597891970,22.9,-44.36,-1.36,,,,,,33.333333333333336,-0.387,-0.648,0.656
1970-01-01 00:00:00.000100838,1755597891972,22.86,-44.35,-1.36,,,,,,34.48275862068966,-0.387,-0.647,0.654
1970-01-01 00:00:00.000100868,1755597891974,22.85,-44.37,-1.36,,,,,,33.333333333333336,-0.388,-0.647,0.654
1970-01-01 00:00:00.000100917,1755597891997,22.86,-44.35,-1.35,,,,,,34.48275862068966,-0.383,-0.647,0.661
1970-01-01 00:00:00.000100947,1755597892027,22.85,-44.27,-1.38,,,,,,33.333333333333336,-0.381,-0.648,0.663
1970-01-01 00:00:00.000100977,1755597892056,22.85,-44.22,-1.41,,,,,,33.333333333333336,-0.384,-0.648,0.66
1970-01-01 00:00:00.000101006,1755597892086,22.84,-44.22,-1.42,,,,,,34.48275862068966,-0.387,-0.645,0.656
1970-01-01 00:00:00.000101036,1755597892116,22.81,-44.24,-1.42,,,,,,33.333333333333336,-0.391,-0.645,0.655
1970-01-01 00:00:00.000101065,1755597892145,22.79,-44.26,-1.39,,,,,,34.48275862068966,-0.391,-0.646,0.656
1970-01-01 00:00:00.000101095,1755597892175,22.8,-44.29,-1.37,,,,,,33.333333333333336,-0.389,-0.646,0.658
1970-01-01 00:00:00.000101124,1755597892204,22.77,-44.32,-1.36,,,,,,34.48275862068966,-0.386,-0.646,0.659
1970-01-01 00:00:00.000101154,1755597892234,22.75,-44.32,-1.35,,,,,,33.333333333333336,-0.384,-0.647,0.659
1970-01-01 00:00:00.000101183,1755597892263,22.73,-44.32,-1.34,,,,,,34.48275862068966,-0.385,-0.647,0.658
1970-01-01 00:00:00.000101213,1755597892293,22.71,-44.33,-1.34,,,,,,33.333333333333336,-0.386,-0.647,0.658
1970-01-01 00:00:00.000101243,1755597892322,22.72,-44.34,-1.31,,,,,,33.333333333333336,-0.385,-0.647,0.66
1970-01-01 00:00:00.000101272,1755597892352,22.75,-44.32,-1.31,,,,,,34.48275862068966,-0.382,-0.645,0.661
1970-01-01 00:00:00.000101302,1755597892382,22.74,-44.32,-1.35,,,,,,33.333333333333336,-0.383,-0.646,0.66
1970-01-01 00:00:00.000101331,1755597892411,22.77,-44.34,-1.34,,,,,,34.48275862068966,-0.384,-0.647,0.66
1970-01-01 00:00:00.000101361,1755597892441,22.8,-44.35,-1.35,,,,,,33.333333333333336,-0.383,-0.645,0.659
1970-01-01 00:00:00.000101390,1755597892470,22.8,-44.37,-1.38,,,,,,34.48275862068966,-0.383,-0.645,0.658
1970-01-01 00:00:00.000101420,1755597892500,22.83,-44.44,-1.42,,,,,,33.333333333333336,-0.385,-0.648,0.657
1970-01-01 00:00:00.000101450,1755597892530,22.87,-44.47,-1.4,,,,,,33.333333333333336,-0.387,-0.648,0.656
1970-01-01 00:00:00.000101479,1755597892559,22.85,-44.45,-1.37,,,,,,34.48275862068966,-0.389,-0.65,0.657
1970-01-01 00:00:00.000101509,1755597892589,22.87,-44.43,-1.31,,,,,,33.333333333333336,-0.388,-0.65,0.655
1970-01-01 00:00:00.000101538,1755597892618,22.89,-44.46,-1.28,,,,,,34.48275862068966,-0.386,-0.65,0.654
1970-01-01 00:00:00.000101568,1755597892648,22.9,-44.47,-1.26,,,,,,33.333333333333336,-0.383,-0.65,0.657
1970-01-01 00:00:00.000101627,1755597892707,22.97,-44.45,-1.28,,,,,,33.333333333333336,-0.385,-0.648,0.653
1970-01-01 00:00:00.000101657,1755597892736,22.97,-44.5,-1.28,,,,,,33.333333333333336,-0.392,-0.649,0.652
1970-01-01 00:00:00.000101686,1755597892766,23.0,-44.5,-1.24,,,,,,34.48275862068966,-0.394,-0.65,0.653
1970-01-01 00:00:00.000101716,1755597892795,23.01,-44.48,-1.21,,,,,,33.333333333333336,-0.393,-0.651,0.653
1970-01-01 00:00:00.000101745,1755597892825,22.98,-44.44,-1.19,,,,,,34.48275862068966,-0.39,-0.65,0.652
1970-01-01 00:00:00.000101775,1755597892855,22.96,-44.42,-1.16,,,,,,33.333333333333336,-0.387,-0.649,0.655
1970-01-01 00:00:00.000101804,1755597892884,22.97,-44.37,-1.16,,,,,,34.48275862068966,-0.386,-0.647,0.658
1970-01-01 00:00:00.000101834,1755597892914,22.96,-44.29,-1.19,,,,,,33.333333333333336,-0.388,-0.647,0.656
1970-01-01 00:00:00.000101863,1755597892944,22.97,-44.26,-1.2,,,,,,34.48275862068966,-0.389,-0.647,0.653
1970-01-01 00:00:00.000101893,1755597892973,23.02,-44.23,-1.13,,,,,,33.333333333333336,-0.394,-0.644,0.654
1970-01-01 00:00:00.000101923,1755597893003,23.11,-44.27,-1.16,,,,,,33.333333333333336,-0.395,-0.644,0.656
1970-01-01 00:00:00.000101952,1755597893032,23.12,-44.25,-1.17,,,,,,34.48275862068966,-0.393,-0.643,0.655
1970-01-01 00:00:00.000101982,1755597893062,23.16,-44.26,-1.15,,,,,,33.333333333333336,-0.392,-0.642,0.653
1970-01-01 00:00:00.000102011,1755597893091,23.23,-44.31,-1.15,,,,,,34.48275862068966,-0.392,-0.642,0.651
1970-01-01 00:00:00.000102041,1755597893121,23.21,-44.33,-1.16,,,,,,33.333333333333336,-0.394,-0.644,0.652
1970-01-01 00:00:00.000102070,1755597893150,23.22,-44.34,-1.14,,,,,,34.48275862068966,-0.394,-0.644,0.651
1970-01-01 00:00:00.000102129,1755597893210,23.22,-44.38,-1.04,,,,,,34.48275862068966,-0.395,-0.646,0.65
1970-01-01 00:00:00.000102189,1755597893269,23.2,-44.4,-0.98,,,,,,33.333333333333336,-0.392,-0.643,0.654
1970-01-01 00:00:00.000102219,1755597893298,23.22,-44.4,-0.96,,,,,,33.333333333333336,-0.391,-0.642,0.657
1970-01-01 00:00:00.000102278,1755597893358,23.31,-44.36,-0.94,,,,,,33.333333333333336,-0.392,-0.645,0.655
1970-01-01 00:00:00.000102307,1755597893387,23.34,-44.36,-0.92,,,,,,34.48275862068966,-0.394,-0.643,0.652
1970-01-01 00:00:00.000102337,1755597893417,23.35,-44.38,-0.9,,,,,,33.333333333333336,-0.396,-0.644,0.651
1970-01-01 00:00:00.000102367,1755597893446,23.37,-44.43,-0.87,,,,,,33.333333333333336,-0.396,-0.64,0.652
1970-01-01 00:00:00.000102396,1755597893476,23.35,-44.45,-0.89,,,,,,34.48275862068966,-0.397,-0.64,0.653
1970-01-01 00:00:00.000102426,1755597893506,23.37,-44.48,-0.89,,,,,,33.333333333333336,-0.398,-0.643,0.654
1970-01-01 00:00:00.000102456,1755597893536,23.4,-44.44,-0.86,,,,,,33.333333333333336,-0.399,-0.646,0.655
1970-01-01 00:00:00.000102476,1755597893556,23.42,-44.41,-0.83,,,,,,50.0,-0.397,-0.645,0.651
1970-01-01 00:00:00.000102505,1755597893585,23.42,-44.41,-0.84,,,,,,34.48275862068966,-0.397,-0.645,0.647
1970-01-01 00:00:00.000102535,1755597893615,23.38,-44.4,-0.88,,,,,,33.333333333333336,-0.399,-0.647,0.647
1970-01-01 00:00:00.000102564,1755597893644,23.38,-44.4,-0.85,,,,,,34.48275862068966,-0.4,-0.646,0.651
1970-01-01 00:00:00.000102594,1755597893674,23.43,-44.35,-0.82,,,,,,33.333333333333336,-0.398,-0.642,0.652
1970-01-01 00:00:00.000102623,1755597893703,23.43,-44.3,-0.84,,,,,,34.48275862068966,-0.397,-0.64,0.649
1970-01-01 00:00:00.000102653,1755597893733,23.42,-44.33,-0.89,,,,,,33.333333333333336,-0.398,-0.639,0.647
1970-01-01 00:00:00.000102712,1755597893792,23.51,-44.29,-0.89,,,,,,33.333333333333336,-0.398,-0.645,0.652
1970-01-01 00:00:00.000102741,1755597893821,23.52,-44.28,-0.89,,,,,,34.48275862068966,-0.4,-0.643,0.648
1970-01-01 00:00:00.000102771,1755597893851,23.51,-44.29,-0.89,,,,,,33.333333333333336,-0.402,-0.642,0.647
1970-01-01 00:00:00.000102800,1755597893880,23.53,-44.3,-0.87,,,,,,34.48275862068966,-0.402,-0.642,0.649
1970-01-01 00:00:00.000102830,1755597893910,23.55,-44.29,-0.83,,,,,,33.333333333333336,-0.402,-0.642,0.649
1970-01-01 00:00:00.000102860,1755597893940,23.54,-44.31,-0.82,,,,,,33.333333333333336,-0.402,-0.642,0.648
1970-01-01 00:00:00.000102890,1755597893970,23.54,-44.33,-0.81,,,,,,33.333333333333336,-0.401,-0.641,0.649
1970-01-01 00:00:00.000102919,1755597893999,23.58,-44.34,-0.79,,,,,,34.48275862068966,-0.4,-0.64,0.651
1970-01-01 00:00:00.000102949,1755597894029,23.59,-44.34,-0.79,,,,,,33.333333333333336,-0.398,-0.641,0.65
1970-01-01 00:00:00.000102978,1755597894058,23.58,-44.34,-0.8,,,,,,34.48275862068966,-0.398,-0.641,0.651
1970-01-01 00:00:00.000103008,1755597894087,23.57,-44.31,-0.83,,,,,,33.333333333333336,-0.398,-0.644,0.654
1970-01-01 00:00:00.000103037,1755597894117,23.57,-44.24,-0.84,,,,,,34.48275862068966,-0.399,-0.645,0.652
1970-01-01 00:00:00.000103067,1755597894147,23.59,-44.22,-0.83,,,,,,33.333333333333336,-0.399,-0.642,0.647
1970-01-01 00:00:00.000103097,1755597894176,23.59,-44.25,-0.86,,,,,,33.333333333333336,-0.401,-0.64,0.647
1970-01-01 00:00:00.000103156,1755597894236,23.58,-44.26,-0.84,,,,,,33.333333333333336,-0.405,-0.644,0.65
1970-01-01 00:00:00.000103185,1755597894265,23.57,-44.26,-0.8,,,,,,34.48275862068966,-0.404,-0.643,0.65
1970-01-01 00:00:00.000103215,1755597894295,23.58,-44.3,-0.77,,,,,,33.333333333333336,-0.401,-0.642,0.651
1970-01-01 00:00:00.000103244,1755597894324,23.54,-44.27,-0.74,,,,,,34.48275862068966,-0.406,-0.642,0.649
1970-01-01 00:00:00.000103274,1755597894354,23.43,-44.31,-0.67,,,,,,33.333333333333336,-0.411,-0.641,0.641
1970-01-01 00:00:00.000103304,1755597894384,23.31,-44.43,-0.58,,,,,,33.333333333333336,-0.414,-0.641,0.64
1970-01-01 00:00:00.000103333,1755597894413,23.27,-44.5,-0.46,,,,,,34.48275862068966,-0.409,-0.639,0.647
1970-01-01 00:00:00.000103363,1755597894443,23.25,-44.56,-0.38,,,,,,33.333333333333336,-0.402,-0.638,0.654
1970-01-01 00:00:00.000103393,1755597894472,23.24,-44.58,-0.36,,,,,,33.333333333333336,-0.393,-0.639,0.658
1970-01-01 00:00:00.000103422,1755597894502,23.28,-44.59,-0.39,,,,,,34.48275862068966,-0.389,-0.639,0.658
1970-01-01 00:00:00.000103452,1755597894532,23.3,-44.59,-0.42,,,,,,33.333333333333336,-0.391,-0.639,0.657
1970-01-01 00:00:00.000103481,1755597894561,23.33,-44.6,-0.44,,,,,,34.48275862068966,-0.395,-0.64,0.656
1970-01-01 00:00:00.000103511,1755597894591,23.36,-44.59,-0.45,,,,,,33.333333333333336,-0.399,-0.64,0.656
1970-01-01 00:00:00.000103540,1755597894620,23.38,-44.59,-0.47,,,,,,34.48275862068966,-0.398,-0.64,0.656
1970-01-01 00:00:00.000103570,1755597894650,23.43,-44.58,-0.48,,,,,,33.333333333333336,-0.397,-0.639,0.656
1970-01-01 00:00:00.000103599,1755597894679,23.54,-44.62,-0.52,,,,,,34.48275862068966,-0.391,-0.635,0.654
1970-01-01 00:00:00.000103629,1755597894709,23.59,-44.67,-0.65,,,,,,33.333333333333336,-0.393,-0.636,0.653
1970-01-01 00:00:00.000103658,1755597894738,23.58,-44.68,-0.78,,,,,,34.48275862068966,-0.397,-0.641,0.654
1970-01-01 00:00:00.000103688,1755597894768,23.68,-44.68,-0.83,,,,,,33.333333333333336,-0.4,-0.645,0.655
1970-01-01 00:00:00.000103717,1755597894797,23.8,-44.63,-0.87,,,,,,34.48275862068966,-0.398,-0.646,0.652
1970-01-01 00:00:00.000103747,1755597894827,23.8,-44.62,-0.97,,,,,,33.333333333333336,-0.395,-0.645,0.646
1970-01-01 00:00:00.000103776,1755597894857,23.79,-44.66,-1.08,,,,,,34.48275862068966,-0.396,-0.648,0.643
1970-01-01 00:00:00.000103806,1755597894886,23.83,-44.71,-1.14,,,,,,33.333333333333336,-0.402,-0.653,0.643
1970-01-01 00:00:00.000103836,1755597894916,23.84,-44.71,-1.15,,,,,,33.333333333333336,-0.406,-0.653,0.642
1970-01-01 00:00:00.000103865,1755597894946,23.81,-44.69,-1.15,,,,,,34.48275862068966,-0.409,-0.652,0.639
1970-01-01 00:00:00.000103895,1755597894975,23.75,-44.75,-1.12,,,,,,33.333333333333336,-0.41,-0.652,0.637
1970-01-01 00:00:00.000103954,1755597895034,23.78,-44.94,-0.97,,,,,,33.333333333333336,-0.397,-0.649,0.65
1970-01-01 00:00:00.000103984,1755597895064,23.8,-44.93,-0.97,,,,,,33.333333333333336,-0.39,-0.65,0.656
1970-01-01 00:00:00.000104013,1755597895093,23.76,-44.91,-1.01,,,,,,34.48275862068966,-0.389,-0.651,0.656
1970-01-01 00:00:00.000104043,1755597895123,23.79,-44.89,-1.0,,,,,,33.333333333333336,-0.388,-0.653,0.656
1970-01-01 00:00:00.000104072,1755597895152,23.87,-44.85,-0.98,,,,,,34.48275862068966,-0.39,-0.65,0.652
1970-01-01 00:00:00.000104102,1755597895182,23.84,-44.84,-1.05,,,,,,33.333333333333336,-0.396,-0.651,0.647
1970-01-01 00:00:00.000104131,1755597895212,23.83,-44.83,-1.06,,,,,,34.48275862068966,-0.404,-0.656,0.642
1970-01-01 00:00:00.000104220,1755597895300,23.86,-44.85,-0.97,,,,,,34.48275862068966,-0.405,-0.653,0.641
1970-01-01 00:00:00.000104250,1755597895330,23.83,-44.81,-0.91,,,,,,33.333333333333336,-0.393,-0.655,0.642
1970-01-01 00:00:00.000104280,1755597895360,23.99,-44.83,-0.79,,,,,,33.333333333333336,-0.387,-0.643,0.64
1970-01-01 00:00:00.000104309,1755597895389,24.0,-44.94,-0.91,,,,,,34.48275862068966,-0.387,-0.637,0.647
1970-01-01 00:00:00.000104339,1755597895419,23.88,-44.93,-1.05,,,,,,33.333333333333336,-0.394,-0.645,0.655
1970-01-01 00:00:00.000104368,1755597895448,23.96,-44.92,-1.02,,,,,,34.48275862068966,-0.402,-0.652,0.654
1970-01-01 00:00:00.000104398,1755597895478,24.04,-44.87,-0.95,,,,,,33.333333333333336,-0.402,-0.65,0.647
1970-01-01 00:00:00.000104428,1755597895507,23.98,-44.83,-0.98,,,,,,33.333333333333336,-0.4,-0.65,0.643
1970-01-01 00:00:00.000104457,1755597895537,23.91,-44.81,-1.04,,,,,,34.48275862068966,-0.404,-0.653,0.639
1970-01-01 00:00:00.000104487,1755597895567,23.93,-44.82,-1.03,,,,,,33.333333333333336,-0.404,-0.657,0.641
1970-01-01 00:00:00.000104516,1755597895596,24.0,-44.81,-0.97,,,,,,34.48275862068966,-0.402,-0.655,0.644
1970-01-01 00:00:00.000104575,1755597895655,23.94,-44.74,-1.03,,,,,,34.48275862068966,-0.397,-0.649,0.649
1970-01-01 00:00:00.000104605,1755597895684,23.99,-44.7,-1.01,,,,,,33.333333333333336,-0.397,-0.654,0.649
1970-01-01 00:00:00.000104634,1755597895714,24.03,-44.62,-0.95,,,,,,34.48275862068966,-0.4,-0.651,0.648
1970-01-01 00:00:00.000104664,1755597895743,24.02,-44.55,-0.96,,,,,,33.333333333333336,-0.4,-0.646,0.645
1970-01-01 00:00:00.000104693,1755597895773,24.0,-44.55,-1.01,,,,,,34.48275862068966,-0.405,-0.653,0.644
1970-01-01 00:00:00.000104723,1755597895803,24.0,-44.51,-0.95,,,,,,33.333333333333336,-0.408,-0.651,0.644
1970-01-01 00:00:00.000104752,1755597895832,24.06,-44.45,-0.87,,,,,,34.48275862068966,-0.406,-0.647,0.647
1970-01-01 00:00:00.000104782,1755597895862,24.03,-44.4,-0.83,,,,,,33.333333333333336,-0.403,-0.643,0.642
1970-01-01 00:00:00.000104841,1755597895921,23.98,-44.44,-0.72,,,,,,33.333333333333336,-0.404,-0.646,0.65
1970-01-01 00:00:00.000104870,1755597895950,24.06,-44.43,-0.59,,,,,,34.48275862068966,-0.404,-0.648,0.652
1970-01-01 00:00:00.000104900,1755597895979,24.09,-44.42,-0.49,,,,,,33.333333333333336,-0.407,-0.648,0.65
1970-01-01 00:00:00.000104929,1755597896009,24.07,-44.43,-0.42,,,,,,34.48275862068966,-0.408,-0.643,0.644
1970-01-01 00:00:00.000104959,1755597896039,24.07,-44.47,-0.36,,,,,,33.333333333333336,-0.41,-0.642,0.644
1970-01-01 00:00:00.000104988,1755597896068,24.1,-44.52,-0.3,,,,,,34.48275862068966,-0.41,-0.64,0.646
1970-01-01 00:00:00.000105018,1755597896098,24.07,-44.56,-0.3,,,,,,33.333333333333336,-0.407,-0.637,0.648
1970-01-01 00:00:00.000105047,1755597896127,24.06,-44.54,-0.31,,,,,,34.48275862068966,-0.407,-0.642,0.653
1970-01-01 00:00:00.000105077,1755597896157,24.04,-44.51,-0.3,,,,,,33.333333333333336,-0.408,-0.645,0.651
1970-01-01 00:00:00.000105107,1755597896187,24.05,-44.49,-0.27,,,,,,33.333333333333336,-0.408,-0.643,0.65
1970-01-01 00:00:00.000105136,1755597896216,24.11,-44.47,-0.25,,,,,,34.48275862068966,-0.405,-0.639,0.651
1970-01-01 00:00:00.000105166,1755597896246,24.14,-44.51,-0.32,,,,,,33.333333333333336,-0.408,-0.639,0.649
1970-01-01 00:00:00.000105195,1755597896275,24.14,-44.54,-0.37,,,,,,34.48275862068966,-0.412,-0.642,0.651
1970-01-01 00:00:00.000105225,1755597896305,24.25,-44.49,-0.35,,,,,,33.333333333333336,-0.412,-0.642,0.653
1970-01-01 00:00:00.000105254,1755597896334,24.29,-44.43,-0.37,,,,,,34.48275862068966,-0.41,-0.642,0.648
1970-01-01 00:00:00.000105284,1755597896364,24.3,-44.47,-0.41,,,,,,33.333333333333336,-0.411,-0.642,0.642
1970-01-01 00:00:00.000105313,1755597896394,24.26,-44.53,-0.46,,,,,,34.48275862068966,-0.414,-0.636,0.637
1970-01-01 00:00:00.000105343,1755597896423,24.2,-44.61,-0.58,,,,,,33.333333333333336,-0.412,-0.636,0.643
1970-01-01 00:00:00.000105373,1755597896453,24.09,-44.55,-0.77,,,,,,33.333333333333336,-0.415,-0.649,0.65
1970-01-01 00:00:00.000105402,1755597896482,23.96,-44.37,-0.87,,,,,,34.48275862068966,-0.415,-0.657,0.656
1970-01-01 00:00:00.000105432,1755597896512,24.04,-44.13,-0.81,,,,,,33.333333333333336,-0.409,-0.656,0.658
1970-01-01 00:00:00.000105462,1755597896542,24.13,-43.92,-0.74,,,,,,33.333333333333336,-0.403,-0.645,0.652
1970-01-01 00:00:00.000105491,1755597896571,23.97,-43.93,-0.84,,,,,,34.48275862068966,-0.4,-0.636,0.647
1970-01-01 00:00:00.000105521,1755597896601,23.96,-44.04,-0.92,,,,,,33.333333333333336,-0.398,-0.632,0.649
1970-01-01 00:00:00.000105550,1755597896630,24.06,-44.13,-0.97,,,,,,34.48275862068966,-0.404,-0.631,0.652
1970-01-01 00:00:00.000105580,1755597896660,24.03,-44.15,-1.05,,,,,,33.333333333333336,-0.411,-0.638,0.651
1970-01-01 00:00:00.000105639,1755597896719,24.09,-44.25,-0.9,,,,,,33.333333333333336,-0.416,-0.645,0.64
1970-01-01 00:00:00.000105668,1755597896748,24.06,-44.34,-0.82,,,,,,34.48275862068966,-0.41,-0.652,0.647
1970-01-01 00:00:00.000105698,1755597896778,24.06,-44.29,-0.74,,,,,,33.333333333333336,-0.401,-0.649,0.652
1970-01-01 00:00:00.000105728,1755597896808,24.11,-44.25,-0.72,,,,,,33.333333333333336,-0.396,-0.646,0.654
1970-01-01 00:00:00.000105757,1755597896837,24.16,-44.27,-0.73,,,,,,34.48275862068966,-0.397,-0.642,0.652
1970-01-01 00:00:00.000105787,1755597896866,24.17,-44.31,-0.75,,,,,,33.333333333333336,-0.403,-0.638,0.652
1970-01-01 00:00:00.000105816,1755597896896,24.17,-44.33,-0.76,,,,,,34.48275862068966,-0.408,-0.636,0.649
1970-01-01 00:00:00.000105875,1755597896955,24.15,-44.39,-0.67,,,,,,34.48275862068966,-0.416,-0.65,0.645
1970-01-01 00:00:00.000105905,1755597896985,24.15,-44.41,-0.58,,,,,,33.333333333333336,-0.412,-0.647,0.648
1970-01-01 00:00:00.000105934,1755597897014,24.14,-44.41,-0.53,,,,,,34.48275862068966,-0.406,-0.644,0.652
1970-01-01 00:00:00.000105964,1755597897044,24.17,-44.41,-0.5,,,,,,33.333333333333336,-0.403,-0.642,0.651
1970-01-01 00:00:00.000105993,1755597897073,24.17,-44.43,-0.5,,,,,,34.48275862068966,-0.403,-0.642,0.652
1970-01-01 00:00:00.000106023,1755597897103,24.17,-44.4,-0.52,,,,,,33.333333333333336,-0.403,-0.641,0.656
1970-01-01 00:00:00.000106052,1755597897132,24.18,-44.38,-0.55,,,,,,34.48275862068966,-0.404,-0.64,0.65
1970-01-01 00:00:00.000106082,1755597897162,24.16,-44.43,-0.58,,,,,,33.333333333333336,-0.409,-0.641,0.648
1970-01-01 00:00:00.000106112,1755597897192,24.15,-44.43,-0.57,,,,,,33.333333333333336,-0.409,-0.643,0.653
1970-01-01 00:00:00.000106141,1755597897222,24.16,-44.36,-0.57,,,,,,34.48275862068966,-0.406,-0.644,0.654
1970-01-01 00:00:00.000106191,1755597897271,24.14,-44.31,-0.59,,,,,,33.333333333333336,-0.405,-0.645,0.646
1970-01-01 00:00:00.000106221,1755597897301,24.1,-44.34,-0.61,,,,,,33.333333333333336,-0.408,-0.644,0.644
1970-01-01 00:00:00.000106241,1755597897321,24.07,-44.35,-0.63,,,,,,50.0,-0.41,-0.643,0.648
1970-01-01 00:00:00.000106270,1755597897350,24.12,-44.31,-0.62,,,,,,34.48275862068966,-0.411,-0.643,0.652
1970-01-01 00:00:00.000106300,1755597897380,24.16,-44.28,-0.62,,,,,,33.333333333333336,-0.411,-0.641,0.65
1970-01-01 00:00:00.000106329,1755597897410,24.12,-44.32,-0.65,,,,,,34.48275862068966,-0.408,-0.641,0.647
1970-01-01 00:00:00.000106359,1755597897439,24.13,-44.35,-0.67,,,,,,33.333333333333336,-0.409,-0.643,0.649
1970-01-01 00:00:00.000106389,1755597897469,24.17,-44.35,-0.68,,,,,,33.333333333333336,-0.408,-0.642,0.65
1970-01-01 00:00:00.000106418,1755597897498,24.14,-44.35,-0.72,,,,,,34.48275862068966,-0.408,-0.641,0.65
1970-01-01 00:00:00.000106448,1755597897528,24.11,-44.32,-0.73,,,,,,33.333333333333336,-0.41,-0.644,0.649
1970-01-01 00:00:00.000106477,1755597897557,24.13,-44.31,-0.72,,,,,,34.48275862068966,-0.411,-0.645,0.647
1970-01-01 00:00:00.000106507,1755597897587,24.08,-44.32,-0.71,,,,,,33.333333333333336,-0.412,-0.646,0.647
1970-01-01 00:00:00.000106536,1755597897616,24.02,-44.26,-0.69,,,,,,34.48275862068966,-0.412,-0.646,0.651
1970-01-01 00:00:00.000106566,1755597897646,24.1,-44.23,-0.59,,,,,,33.333333333333336,-0.413,-0.647,0.65
1970-01-01 00:00:00.000106595,1755597897675,24.17,-44.21,-0.49,,,,,,34.48275862068966,-0.409,-0.645,0.65
1970-01-01 00:00:00.000106625,1755597897705,24.12,-44.14,-0.47,,,,,,33.333333333333336,-0.402,-0.64,0.65
1970-01-01 00:00:00.000106654,1755597897734,24.09,-44.15,-0.51,,,,,,34.48275862068966,-0.4,-0.639,0.652
1970-01-01 00:00:00.000106684,1755597897764,24.12,-44.15,-0.52,,,,,,33.333333333333336,-0.404,-0.641,0.653
1970-01-01 00:00:00.000106713,1755597897794,24.18,-44.14,-0.5,,,,,,34.48275862068966,-0.406,-0.638,0.652
1970-01-01 00:00:00.000106743,1755597897823,24.14,-44.11,-0.53,,,,,,33.333333333333336,-0.407,-0.636,0.652
1970-01-01 00:00:00.000106773,1755597897853,24.14,-44.15,-0.58,,,,,,33.333333333333336,-0.408,-0.639,0.651
1970-01-01 00:00:00.000106802,1755597897882,24.18,-44.15,-0.56,,,,,,34.48275862068966,-0.41,-0.64,0.65
1970-01-01 00:00:00.000106832,1755597897912,24.2,-44.17,-0.57,,,,,,33.333333333333336,-0.41,-0.639,0.65
1970-01-01 00:00:00.000106861,1755597897941,24.16,-44.16,-0.58,,,,,,34.48275862068966,-0.408,-0.64,0.653
1970-01-01 00:00:00.000106891,1755597897971,24.19,-44.12,-0.57,,,,,,33.333333333333336,-0.407,-0.637,0.65
