timestamp_ms,recv_timestamp_ms,pitch,roll,yaw,flex1,flex2,flex3,flex4,flex5,sampling_hz,accel_x,accel_y,accel_z
1970-01-01 00:00:00.000080529,1755597874888,22.28,-44.06,-2.87,765.0,767.0,835.0,893.0,863.0,34.48275862068966,-0.385,-0.644,0.657
1970-01-01 00:00:00.000080559,1755597874890,22.31,-44.11,-2.86,,,,,,33.333333333333336,-0.387,-0.644,0.658
1970-01-01 00:00:00.000080588,1755597874891,22.32,-44.1,-2.84,,,,,,34.48275862068966,-0.386,-0.646,0.662
1970-01-01 00:00:00.000080618,1755597874893,22.32,-44.08,-2.84,,,,,,33.333333333333336,-0.382,-0.645,0.661
1970-01-01 00:00:00.000080647,1755597874895,22.32,-44.1,-2.86,,,,,,34.48275862068966,-0.382,-0.645,0.661
1970-01-01 00:00:00.000080677,1755597874898,22.33,-44.11,-2.87,,,,,,33.333333333333336,-0.384,-0.646,0.66
1970-01-01 00:00:00.000080706,1755597874900,22.35,-44.09,-2.85,,,,,,34.48275862068966,-0.385,-0.646,0.66
1970-01-01 00:00:00.000080736,1755597874902,22.36,-44.08,-2.83,,,,,,33.333333333333336,-0.384,-0.645,0.661
1970-01-01 00:00:00.000080765,1755597874904,22.35,-44.07,-2.83,,,,,,34.48275862068966,-0.383,-0.644,0.661
1970-01-01 00:00:00.000080795,1755597874906,22.34,-44.1,-2.85,,,,,,33.333333333333336,-0.383,-0.645,0.66
1970-01-01 00:00:00.000080854,1755597874911,22.38,-44.1,-2.82,,,,,,33.333333333333336,-0.384,-0.645,0.662
1970-01-01 00:00:00.000080883,1755597874913,22.38,-44.09,-2.82,,,,,,34.48275862068966,-0.384,-0.645,0.661
1970-01-01 00:00:00.000080903,1755597874915,22.37,-44.1,-2.82,,,,,,50.0,-0.383,-0.645,0.659
1970-01-01 00:00:00.000080933,1755597874917,22.38,-44.11,-2.81,,,,,,33.333333333333336,-0.383,-0.644,0.66
1970-01-01 00:00:00.000080962,1755597874920,22.37,-44.11,-2.81,,,,,,34.48275862068966,-0.384,-0.646,0.663
1970-01-01 00:00:00.000080992,1755597874922,22.38,-44.08,-2.8,,,,,,33.333333333333336,-0.383,-0.646,0.662
1970-01-01 00:00:00.000081021,1755597874924,22.4,-44.07,-2.8,,,,,,34.48275862068966,-0.383,-0.646,0.66
1970-01-01 00:00:00.000081051,1755597874926,22.41,-44.08,-2.8,,,,,,33.333333333333336,-0.383,-0.646,0.66
1970-01-01 00:00:00.000081080,1755597874928,22.41,-44.06,-2.79,,,,,,34.48275862068966,-0.384,-0.646,0.661
1970-01-01 00:00:00.000081110,1755597874930,22.41,-44.06,-2.79,,,,,,33.333333333333336,-0.384,-0.645,0.66
1970-01-01 00:00:00.000081139,1755597874932,22.42,-44.06,-2.78,,,,,,34.48275862068966,-0.383,-0.645,0.659
1970-01-01 00:00:00.000081169,1755597874934,22.42,-44.07,-2.78,,,,,,33.333333333333336,-0.383,-0.645,0.662
1970-01-01 00:00:00.000081198,1755597874935,22.41,-44.06,-2.79,,,,,,34.48275862068966,-0.382,-0.645,0.662
1970-01-01 00:00:00.000081228,1755597874937,22.41,-44.07,-2.8,,,,,,33.333333333333336,-0.383,-0.645,0.661
1970-01-01 00:00:00.000081257,1755597874939,22.42,-44.06,-2.8,,,,,,34.48275862068966,-0.384,-0.646,0.66
1970-01-01 00:00:00.000081287,1755597874941,22.42,-44.08,-2.79,,,,,,33.333333333333336,-0.383,-0.646,0.659
1970-01-01 00:00:00.000081375,1755597874947,22.41,-44.05,-2.8,,,,,,34.48275862068966,-0.382,-0.645,0.661
1970-01-01 00:00:00.000081405,1755597874949,22.39,-44.05,-2.81,,,,,,33.333333333333336,-0.384,-0.645,0.66
1970-01-01 00:00:00.000081434,1755597874952,22.39,-44.06,-2.81,,,,,,34.48275862068966,-0.383,-0.646,0.66
1970-01-01 00:00:00.000081464,1755597874953,22.4,-44.06,-2.8,,,,,,33.333333333333336,-0.382,-0.646,0.661
1970-01-01 00:00:00.000081493,1755597874956,22.41,-44.04,-2.78,,,,,,34.48275862068966,-0.381,-0.647,0.662
1970-01-01 00:00:00.000081523,1755597874957,22.43,-44.05,-2.77,,,,,,33.333333333333336,-0.382,-0.646,0.661
1970-01-01 00:00:00.000081552,1755597874959,22.42,-44.06,-2.77,,,,,,34.48275862068966,-0.384,-0.645,0.66
1970-01-01 00:00:00.000081582,1755597874961,22.44,-44.08,-2.76,,,,,,33.333333333333336,-0.384,-0.646,0.66
1970-01-01 00:00:00.000081611,1755597874963,22.45,-44.09,-2.76,,,,,,34.48275862068966,-0.383,-0.645,0.66
1970-01-01 00:00:00.000081640,1755597874965,22.43,-44.09,-2.77,,,,,,34.48275862068966,-0.383,-0.646,0.66
1970-01-01 00:00:00.000081670,1755597874967,22.45,-44.1,-2.77,,,,,,33.333333333333336,-0.383,-0.647,0.66
1970-01-01 00:00:00.000081699,1755597874969,22.45,-44.11,-2.77,,,,,,34.48275862068966,-0.383,-0.646,0.66
1970-01-01 00:00:00.000081729,1755597874972,22.45,-44.11,-2.78,,,,,,33.333333333333336,-0.384,-0.647,0.66
1970-01-01 00:00:00.000081758,1755597874974,22.48,-44.11,-2.77,,,,,,34.48275862068966,-0.383,-0.647,0.66
1970-01-01 00:00:00.000081788,1755597874976,22.49,-44.12,-2.78,,,,,,33.333333333333336,-0.382,-0.647,0.66
1970-01-01 00:00:00.000081818,1755597874978,22.47,-44.1,-2.8,,,,,,33.333333333333336,-0.383,-0.647,0.66
1970-01-01 00:00:00.000081847,1755597874980,22.48,-44.1,-2.8,,,,,,34.48275862068966,-0.383,-0.647,0.66
1970-01-01 00:00:00.000081877,1755597874982,22.51,-44.12,-2.79,,,,,,33.333333333333336,-0.383,-0.646,0.66
1970-01-01 00:00:00.000081906,1755597874984,22.52,-44.11,-2.79,,,,,,34.48275862068966,-0.382,-0.646,0.661
1970-01-01 00:00:00.000081936,1755597874987,22.51,-44.08,-2.79,,,,,,33.333333333333336,-0.383,-0.647,0.66
1970-01-01 00:00:00.000081965,1755597874989,22.51,-44.09,-2.79,,,,,,34.48275862068966,-0.384,-0.647,0.659
1970-01-01 00:00:00.000081995,1755597874991,22.51,-44.08,-2.79,,,,,,33.333333333333336,-0.385,-0.648,0.657
1970-01-01 00:00:00.000082053,1755597874995,22.49,-44.09,-2.78,,,,,,34.48275862068966,-0.382,-0.647,0.658
1970-01-01 00:00:00.000082083,1755597874997,22.47,-44.08,-2.78,,,,,,33.333333333333336,-0.383,-0.646,0.659
1970-01-01 00:00:00.000082113,1755597875000,22.46,-44.09,-2.79,,,,,,33.333333333333336,-0.384,-0.647,0.659
1970-01-01 00:00:00.000082142,1755597875002,22.46,-44.09,-2.76,,,,,,34.48275862068966,-0.384,-0.648,0.66
1970-01-01 00:00:00.000082172,1755597875004,22.48,-44.08,-2.74,,,,,,33.333333333333336,-0.383,-0.647,0.66
1970-01-01 00:00:00.000082202,1755597875006,22.47,-44.08,-2.73,,,,,,33.333333333333336,-0.381,-0.646,0.66
1970-01-01 00:00:00.000082231,1755597875008,22.45,-44.07,-2.75,,,,,,34.48275862068966,-0.381,-0.646,0.662
1970-01-01 00:00:00.000082260,1755597875010,22.46,-44.07,-2.75,,,,,,34.48275862068966,-0.383,-0.646,0.662
1970-01-01 00:00:00.000082290,1755597875012,22.48,-44.07,-2.73,,,,,,33.333333333333336,-0.383,-0.645,0.66
1970-01-01 00:00:00.000082320,1755597875014,22.49,-44.09,-2.72,,,,,,33.333333333333336,-0.383,-0.645,0.66
1970-01-01 00:00:00.000082349,1755597875016,22.49,-44.09,-2.73,,,,,,34.48275862068966,-0.383,-0.645,0.661
1970-01-01 00:00:00.000082378,1755597875018,22.48,-44.07,-2.73,,,,,,34.48275862068966,-0.382,-0.646,0.661
1970-01-01 00:00:00.000082408,1755597875021,22.49,-44.09,-2.73,,,,,,33.333333333333336,-0.382,-0.646,0.66
1970-01-01 00:00:00.000082428,1755597875022,22.49,-44.1,-2.73,,,,,,50.0,-0.382,-0.646,0.66
1970-01-01 00:00:00.000082458,1755597875024,22.49,-44.09,-2.73,,,,,,33.333333333333336,-0.382,-0.646,0.661
1970-01-01 00:00:00.000082487,1755597875027,22.47,-44.08,-2.74,,,,,,34.48275862068966,-0.382,-0.646,0.661
1970-01-01 00:00:00.000082517,1755597875029,22.48,-44.07,-2.74,,,,,,33.333333333333336,-0.382,-0.645,0.66
1970-01-01 00:00:00.000082547,1755597875031,22.48,-44.08,-2.74,,,,,,33.333333333333336,-0.382,-0.645,0.66
1970-01-01 00:00:00.000082576,1755597875034,22.47,-44.09,-2.74,,,,,,34.48275862068966,-0.383,-0.646,0.662
1970-01-01 00:00:00.000082606,1755597875035,22.48,-44.06,-2.73,,,,,,33.333333333333336,-0.382,-0.646,0.661
1970-01-01 00:00:00.000082635,1755597875037,22.47,-44.07,-2.72,,,,,,34.48275862068966,-0.381,-0.644,0.659
1970-01-01 00:00:00.000082665,1755597875040,22.41,-44.08,-2.75,,,,,,33.333333333333336,-0.381,-0.645,0.659
1970-01-01 00:00:00.000082695,1755597875042,22.4,-44.11,-2.74,,,,,,33.333333333333336,-0.38,-0.647,0.66
1970-01-01 00:00:00.000082715,1755597875044,22.43,-44.13,-2.73,,,,,,50.0,-0.38,-0.647,0.663
1970-01-01 00:00:00.000082774,1755597875048,22.43,-44.11,-2.74,,,,,,34.48275862068966,-0.381,-0.647,0.661
1970-01-01 00:00:00.000082804,1755597875050,22.39,-44.14,-2.76,,,,,,33.333333333333336,-0.382,-0.646,0.659
1970-01-01 00:00:00.000082834,1755597875052,22.4,-44.14,-2.76,,,,,,33.333333333333336,-0.384,-0.647,0.659
1970-01-01 00:00:00.000082863,1755597875055,22.4,-44.15,-2.73,,,,,,34.48275862068966,-0.383,-0.648,0.66
1970-01-01 00:00:00.000082893,1755597875057,22.39,-44.15,-2.71,,,,,,33.333333333333336,-0.38,-0.647,0.663
1970-01-01 00:00:00.000082951,1755597875061,22.42,-44.13,-2.72,,,,,,34.48275862068966,-0.382,-0.647,0.66
1970-01-01 00:00:00.000082981,1755597875063,22.42,-44.14,-2.72,,,,,,33.333333333333336,-0.383,-0.647,0.66
1970-01-01 00:00:00.000083010,1755597875065,22.42,-44.14,-2.71,,,,,,34.48275862068966,-0.383,-0.648,0.662
1970-01-01 00:00:00.000083040,1755597875068,22.43,-44.14,-2.7,,,,,,33.333333333333336,-0.381,-0.648,0.663
1970-01-01 00:00:00.000083069,1755597875070,22.42,-44.12,-2.71,,,,,,34.48275862068966,-0.38,-0.646,0.661
1970-01-01 00:00:00.000083099,1755597875072,22.42,-44.14,-2.72,,,,,,33.333333333333336,-0.381,-0.646,0.661
1970-01-01 00:00:00.000083129,1755597875074,22.4,-44.17,-2.75,,,,,,33.333333333333336,-0.381,-0.647,0.662
1970-01-01 00:00:00.000083158,1755597875076,22.42,-44.15,-2.72,,,,,,34.48275862068966,-0.383,-0.648,0.662
1970-01-01 00:00:00.000083188,1755597875078,22.46,-44.14,-2.69,,,,,,33.333333333333336,-0.382,-0.648,0.661
1970-01-01 00:00:00.000083217,1755597875080,22.45,-44.16,-2.69,,,,,,34.48275862068966,-0.381,-0.647,0.66
1970-01-01 00:00:00.000083247,1755597875082,22.43,-44.16,-2.7,,,,,,33.333333333333336,-0.38,-0.647,0.661
1970-01-01 00:00:00.000083276,1755597875084,22.45,-44.15,-2.69,,,,,,34.48275862068966,-0.379,-0.648,0.662
1970-01-01 00:00:00.000083306,1755597875087,22.45,-44.16,-2.7,,,,,,33.333333333333336,-0.381,-0.648,0.661
1970-01-01 00:00:00.000083335,1755597875089,22.42,-44.15,-2.7,,,,,,34.48275862068966,-0.382,-0.648,0.66
1970-01-01 00:00:00.000083365,1755597875091,22.44,-44.15,-2.68,,,,,,33.333333333333336,-0.382,-0.648,0.66
1970-01-01 00:00:00.000083394,1755597875093,22.43,-44.17,-2.69,,,,,,34.48275862068966,-0.38,-0.648,0.661
1970-01-01 00:00:00.000083424,1755597875094,22.41,-44.19,-2.71,,,,,,33.333333333333336,-0.38,-0.649,0.661
1970-01-01 00:00:00.000083453,1755597875096,22.43,-43.73,-2.69,,,,,,34.48275862068966,-0.381,-0.649,0.662
1970-01-01 00:00:00.000083483,1755597875098,22.43,-43.74,-2.68,,,,,,33.333333333333336,-0.382,-0.649,0.66
1970-01-01 00:00:00.000083512,1755597875100,22.43,-43.76,-2.67,,,,,,34.48275862068966,-0.381,-0.647,0.659
1970-01-01 00:00:00.000083542,1755597875103,22.42,-43.78,-2.67,,,,,,33.333333333333336,-0.382,-0.647,0.66
1970-01-01 00:00:00.000083571,1755597875104,22.43,-43.77,-2.67,,,,,,34.48275862068966,-0.382,-0.65,0.662
1970-01-01 00:00:00.000083601,1755597875107,22.45,-43.77,-2.65,,,,,,33.333333333333336,-0.38,-0.649,0.661
1970-01-01 00:00:00.000083621,1755597875108,22.46,-43.79,-2.64,,,,,,50.0,-0.38,-0.648,0.659
1970-01-01 00:00:00.000083651,1755597875110,22.46,-43.82,-2.65,,,,,,33.333333333333336,-0.38,-0.647,0.659
1970-01-01 00:00:00.000083680,1755597875112,22.44,-43.83,-2.66,,,,,,34.48275862068966,-0.381,-0.648,0.662
1970-01-01 00:00:00.000083710,1755597875115,22.47,-43.83,-2.65,,,,,,33.333333333333336,-0.381,-0.649,0.661
1970-01-01 00:00:00.000083740,1755597875117,22.48,-43.83,-2.64,,,,,,33.333333333333336,-0.381,-0.649,0.66
1970-01-01 00:00:00.000083769,1755597875119,22.47,-43.85,-2.64,,,,,,34.48275862068966,-0.38,-0.649,0.659
1970-01-01 00:00:00.000083799,1755597875121,22.48,-43.86,-2.65,,,,,,33.333333333333336,-0.382,-0.649,0.658
1970-01-01 00:00:00.000083819,1755597875123,22.47,-43.88,-2.65,,,,,,50.0,-0.382,-0.649,0.659
1970-01-01 00:00:00.000083848,1755597875125,22.47,-43.87,-2.65,,,,,,34.48275862068966,-0.383,-0.651,0.661
1970-01-01 00:00:00.000083878,1755597875127,22.51,-43.88,-2.64,,,,,,33.333333333333336,-0.382,-0.65,0.66
1970-01-01 00:00:00.000083907,1755597875129,22.52,-43.9,-2.65,,,,,,34.48275862068966,-0.381,-0.649,0.658
1970-01-01 00:00:00.000083937,1755597875131,22.5,-43.92,-2.66,,,,,,33.333333333333336,-0.382,-0.65,0.659
1970-01-01 00:00:00.000083966,1755597875133,22.51,-43.93,-2.66,,,,,,34.48275862068966,-0.382,-0.65,0.659
1970-01-01 00:00:00.000083996,1755597875135,22.52,-43.94,-2.67,,,,,,33.333333333333336,-0.382,-0.65,0.66
1970-01-01 00:00:00.000084055,1755597875140,22.53,-43.97,-2.68,,,,,,33.333333333333336,-0.379,-0.649,0.659
1970-01-01 00:00:00.000084084,1755597875164,22.52,-44.0,-2.71,,,,,,34.48275862068966,-0.381,-0.648,0.66
1970-01-01 00:00:00.000084114,1755597875194,22.53,-44.0,-2.71,,,,,,33.333333333333336,-0.382,-0.649,0.659
1970-01-01 00:00:00.000084144,1755597875223,22.55,-44.02,-2.7,,,,,,33.333333333333336,-0.382,-0.649,0.66
1970-01-01 00:00:00.000084174,1755597875253,22.55,-44.05,-2.71,,,,,,33.333333333333336,-0.381,-0.649,0.66
1970-01-01 00:00:00.000084203,1755597875283,22.54,-44.06,-2.71,,,,,,34.48275862068966,-0.38,-0.649,0.659
1970-01-01 00:00:00.000084233,1755597875312,22.53,-44.06,-2.72,,,,,,33.333333333333336,-0.38,-0.649,0.66
1970-01-01 00:00:00.000084262,1755597875342,22.54,-44.04,-2.72,,,,,,34.48275862068966,-0.381,-0.649,0.66
1970-01-01 00:00:00.000084291,1755597875371,22.54,-44.04,-2.71,,,,,,34.48275862068966,-0.382,-0.65,0.658
1970-01-01 00:00:00.000084321,1755597875400,22.53,-44.07,-2.71,,,,,,33.333333333333336,-0.382,-0.649,0.657
1970-01-01 00:00:00.000084350,1755597875430,22.53,-44.08,-2.71,,,,,,34.48275862068966,-0.381,-0.648,0.659
1970-01-01 00:00:00.000084380,1755597875459,22.52,-44.09,-2.72,,,,,,33.333333333333336,-0.38,-0.65,0.66
1970-01-01 00:00:00.000084410,1755597875489,22.53,-44.08,-2.71,,,,,,33.333333333333336,-0.38,-0.65,0.659
1970-01-01 00:00:00.000084439,1755597875519,22.54,-44.06,-2.71,,,,,,34.48275862068966,-0.381,-0.649,0.657
1970-01-01 00:00:00.000084468,1755597875548,22.51,-44.09,-2.71,,,,,,34.48275862068966,-0.382,-0.651,0.656
1970-01-01 00:00:00.000084498,1755597875577,22.53,-44.11,-2.69,,,,,,33.333333333333336,-0.381,-0.65,0.656
1970-01-01 00:00:00.000084527,1755597875607,22.52,-44.08,-2.69,,,,,,34.48275862068966,-0.381,-0.649,0.658
1970-01-01 00:00:00.000084557,1755597875636,22.47,-44.09,-2.71,,,,,,33.333333333333336,-0.381,-0.65,0.659
1970-01-01 00:00:00.000084586,1755597875666,22.49,-44.11,-2.69,,,,,,34.48275862068966,-0.38,-0.649,0.658
1970-01-01 00:00:00.000084616,1755597875695,22.52,-44.11,-2.68,,,,,,33.333333333333336,-0.381,-0.649,0.658
1970-01-01 00:00:00.000084645,1755597875725,22.47,-44.1,-2.71,,,,,,34.48275862068966,-0.381,-0.65,0.657
1970-01-01 00:00:00.000084675,1755597875755,22.45,-44.11,-2.7,,,,,,33.333333333333336,-0.383,-0.651,0.656
1970-01-01 00:00:00.000084705,1755597875785,22.5,-44.13,-2.67,,,,,,33.333333333333336,-0.382,-0.651,0.657
1970-01-01 00:00:00.000084735,1755597875814,22.46,-44.12,-2.66,,,,,,33.333333333333336,-0.379,-0.649,0.657
1970-01-01 00:00:00.000084764,1755597875843,22.46,-44.1,-2.67,,,,,,34.48275862068966,-0.378,-0.649,0.659
1970-01-01 00:00:00.000084794,1755597875873,22.47,-44.1,-2.67,,,,,,33.333333333333336,-0.38,-0.65,0.659
1970-01-01 00:00:00.000084823,1755597875903,22.46,-44.11,-2.67,,,,,,34.48275862068966,-0.381,-0.65,0.658
1970-01-01 00:00:00.000084853,1755597875932,22.46,-44.1,-2.65,,,,,,33.333333333333336,-0.381,-0.649,0.657
1970-01-01 00:00:00.000084882,1755597875962,22.46,-44.13,-2.65,,,,,,34.48275862068966,-0.38,-0.649,0.658
1970-01-01 00:00:00.000084912,1755597875991,22.44,-44.14,-2.66,,,,,,33.333333333333336,-0.379,-0.65,0.66
1970-01-01 00:00:00.000084941,1755597876020,22.45,-44.12,-2.65,,,,,,34.48275862068966,-0.378,-0.649,0.661
1970-01-01 00:00:00.000084971,1755597876050,22.46,-44.11,-2.64,,,,,,33.333333333333336,-0.379,-0.649,0.66
1970-01-01 00:00:00.000085030,1755597876109,22.44,-44.13,-2.65,,,,,,33.333333333333336,-0.381,-0.649,0.659
1970-01-01 00:00:00.000085059,1755597876138,22.46,-44.14,-2.63,,,,,,34.48275862068966,-0.38,-0.649,0.659
1970-01-01 00:00:00.000085118,1755597876198,22.44,-44.14,-2.64,,,,,,34.48275862068966,-0.38,-0.65,0.66
1970-01-01 00:00:00.000085148,1755597876227,22.45,-44.14,-2.63,,,,,,33.333333333333336,-0.38,-0.649,0.659
1970-01-01 00:00:00.000085177,1755597876257,22.45,-44.14,-2.63,,,,,,34.48275862068966,-0.38,-0.65,0.659
1970-01-01 00:00:00.000085207,1755597876286,22.44,-44.16,-2.62,,,,,,33.333333333333336,-0.38,-0.65,0.659
1970-01-01 00:00:00.000085236,1755597876316,22.44,-44.16,-2.61,,,,,,34.48275862068966,-0.379,-0.649,0.66
1970-01-01 00:00:00.000085266,1755597876345,22.43,-44.14,-2.62,,,,,,33.333333333333336,-0.379,-0.649,0.66
1970-01-01 00:00:00.000085295,1755597876375,22.42,-44.13,-2.62,,,,,,34.48275862068966,-0.38,-0.651,0.659
1970-01-01 00:00:00.000085325,1755597876404,22.44,-44.15,-2.6,,,,,,33.333333333333336,-0.38,-0.65,0.658
1970-01-01 00:00:00.000085354,1755597876434,22.43,-44.15,-2.59,,,,,,34.48275862068966,-0.381,-0.649,0.659
1970-01-01 00:00:00.000085384,1755597876463,22.41,-44.13,-2.59,,,,,,33.333333333333336,-0.38,-0.649,0.66
1970-01-01 00:00:00.000085413,1755597876493,22.41,-44.13,-2.58,,,,,,34.48275862068966,-0.379,-0.649,0.66
1970-01-01 00:00:00.000085502,1755597876581,22.41,-44.08,-2.56,,,,,,33.333333333333336,-0.38,-0.65,0.66
1970-01-01 00:00:00.000085531,1755597876611,22.41,-44.08,-2.55,,,,,,34.48275862068966,-0.379,-0.648,0.66
1970-01-01 00:00:00.000085590,1755597876670,22.37,-44.09,-2.59,,,,,,34.48275862068966,-0.381,-0.648,0.661
1970-01-01 00:00:00.000085620,1755597876699,22.37,-44.07,-2.56,,,,,,33.333333333333336,-0.383,-0.649,0.658
1970-01-01 00:00:00.000085649,1755597876729,22.37,-44.11,-2.53,,,,,,34.48275862068966,-0.376,-0.649,0.658
1970-01-01 00:00:00.000085679,1755597876759,22.36,-44.13,-2.51,,,,,,33.333333333333336,-0.373,-0.648,0.661
1970-01-01 00:00:00.000085708,1755597876788,22.32,-44.12,-2.53,,,,,,34.48275862068966,-0.373,-0.649,0.664
1970-01-01 00:00:00.000085738,1755597876818,22.35,-44.1,-2.51,,,,,,33.333333333333336,-0.377,-0.649,0.663
1970-01-01 00:00:00.000085768,1755597876847,22.37,-44.12,-2.51,,,,,,33.333333333333336,-0.381,-0.645,0.658
1970-01-01 00:00:00.000085827,1755597876906,22.31,-44.22,-2.5,,,,,,33.333333333333336,-0.381,-0.647,0.663
1970-01-01 00:00:00.000085856,1755597876936,22.32,-44.25,-2.51,,,,,,34.48275862068966,-0.379,-0.649,0.666
1970-01-01 00:00:00.000085886,1755597876965,22.33,-44.24,-2.5,,,,,,33.333333333333336,-0.376,-0.651,0.663
1970-01-01 00:00:00.000085915,1755597876995,22.33,-44.27,-2.48,,,,,,34.48275862068966,-0.376,-0.648,0.66
1970-01-01 00:00:00.000085945,1755597877024,22.29,-44.28,-2.5,,,,,,33.333333333333336,-0.38,-0.651,0.659
1970-01-01 00:00:00.000085974,1755597877054,22.28,-44.32,-2.47,,,,,,34.48275862068966,-0.383,-0.654,0.657
1970-01-01 00:00:00.000086004,1755597877083,22.33,-44.32,-2.37,,,,,,33.333333333333336,-0.38,-0.654,0.659
1970-01-01 00:00:00.000086034,1755597877113,22.34,-44.29,-2.35,,,,,,33.333333333333336,-0.375,-0.651,0.66
1970-01-01 00:00:00.000086063,1755597877143,22.29,-44.3,-2.38,,,,,,34.48275862068966,-0.374,-0.649,0.659
1970-01-01 00:00:00.000086093,1755597877172,22.32,-44.31,-2.37,,,,,,33.333333333333336,-0.378,-0.648,0.66
1970-01-01 00:00:00.000086122,1755597877202,22.37,-44.31,-2.36,,,,,,34.48275862068966,-0.381,-0.65,0.664
1970-01-01 00:00:00.000086152,1755597877231,22.36,-44.24,-2.34,,,,,,33.333333333333336,-0.38,-0.651,0.66
1970-01-01 00:00:00.000086181,1755597877261,22.41,-44.24,-2.31,,,,,,34.48275862068966,-0.379,-0.649,0.656
1970-01-01 00:00:00.000086211,1755597877290,22.43,-44.3,-2.31,,,,,,33.333333333333336,-0.377,-0.645,0.655
1970-01-01 00:00:00.000086269,1755597877349,22.48,-44.34,-2.35,,,,,,34.48275862068966,-0.385,-0.646,0.658
1970-01-01 00:00:00.000086299,1755597877378,22.49,-44.35,-2.33,,,,,,33.333333333333336,-0.386,-0.649,0.658
1970-01-01 00:00:00.000086328,1755597877408,22.48,-44.34,-2.31,,,,,,34.48275862068966,-0.384,-0.649,0.659
1970-01-01 00:00:00.000086358,1755597877438,22.48,-44.33,-2.31,,,,,,33.333333333333336,-0.381,-0.649,0.659
1970-01-01 00:00:00.000086387,1755597877467,22.42,-44.31,-2.34,,,,,,34.48275862068966,-0.384,-0.652,0.658
1970-01-01 00:00:00.000086417,1755597877496,22.41,-44.3,-2.29,,,,,,33.333333333333336,-0.386,-0.654,0.658
1970-01-01 00:00:00.000086505,1755597877585,22.38,-44.24,-2.2,,,,,,34.48275862068966,-0.381,-0.647,0.657
1970-01-01 00:00:00.000086535,1755597877614,22.41,-44.25,-2.18,,,,,,33.333333333333336,-0.382,-0.646,0.658
1970-01-01 00:00:00.000086564,1755597877644,22.39,-44.22,-2.16,,,,,,34.48275862068966,-0.385,-0.647,0.66
1970-01-01 00:00:00.000086623,1755597877703,22.43,-44.18,-2.13,,,,,,34.48275862068966,-0.378,-0.645,0.66
1970-01-01 00:00:00.000086683,1755597877762,22.41,-43.7,-2.22,,,,,,33.333333333333336,-0.382,-0.649,0.66
1970-01-01 00:00:00.000086712,1755597877792,22.47,-43.69,-2.2,,,,,,34.48275862068966,-0.384,-0.647,0.657
1970-01-01 00:00:00.000086742,1755597877821,22.47,-43.69,-2.2,,,,,,33.333333333333336,-0.384,-0.646,0.658
1970-01-01 00:00:00.000086771,1755597877851,22.45,-43.69,-2.22,,,,,,34.48275862068966,-0.383,-0.645,0.657
1970-01-01 00:00:00.000086801,1755597877881,22.44,-43.7,-2.23,,,,,,33.333333333333336,-0.383,-0.645,0.657
1970-01-01 00:00:00.000086831,1755597877910,22.46,-43.72,-2.22,,,,,,33.333333333333336,-0.383,-0.647,0.659
1970-01-01 00:00:00.000086860,1755597877940,22.49,-43.72,-2.2,,,,,,34.48275862068966,-0.382,-0.648,0.66
1970-01-01 00:00:00.000086890,1755597877969,22.59,-43.75,-2.15,,,,,,33.333333333333336,-0.38,-0.647,0.658
1970-01-01 00:00:00.000086919,1755597877999,22.71,-43.81,-2.12,,,,,,34.48275862068966,-0.381,-0.645,0.659
1970-01-01 00:00:00.000086978,1755597878058,22.73,-43.86,-2.17,,,,,,34.48275862068966,-0.385,-0.645,0.659
1970-01-01 00:00:00.000087008,1755597878088,22.79,-43.87,-2.15,,,,,,33.333333333333336,-0.385,-0.646,0.659
1970-01-01 00:00:00.000087038,1755597878117,22.81,-43.86,-2.15,,,,,,33.333333333333336,-0.386,-0.645,0.658
1970-01-01 00:00:00.000087067,1755597878147,22.75,-43.85,-2.17,,,,,,34.48275862068966,-0.385,-0.646,0.658
1970-01-01 00:00:00.000087097,1755597878176,22.78,-43.87,-2.17,,,,,,33.333333333333336,-0.385,-0.646,0.659
1970-01-01 00:00:00.000087126,1755597878205,22.77,-43.87,-2.2,,,,,,34.48275862068966,-0.387,-0.645,0.657
1970-01-01 00:00:00.000087155,1755597878235,22.75,-43.88,-2.2,,,,,,34.48275862068966,-0.389,-0.647,0.656
1970-01-01 00:00:00.000087185,1755597878265,22.79,-43.92,-2.17,,,,,,33.333333333333336,-0.387,-0.646,0.657
1970-01-01 00:00:00.000087244,1755597878324,22.72,-43.95,-2.22,,,,,,33.333333333333336,-0.387,-0.648,0.657
1970-01-01 00:00:00.000087273,1755597878353,22.75,-43.96,-2.2,,,,,,34.48275862068966,-0.386,-0.648,0.657
1970-01-01 00:00:00.000087303,1755597878382,22.76,-43.97,-2.2,,,,,,33.333333333333336,-0.384,-0.647,0.657
1970-01-01 00:00:00.000087332,1755597878412,22.72,-43.98,-2.23,,,,,,34.48275862068966,-0.384,-0.649,0.656
1970-01-01 00:00:00.000087362,1755597878441,22.71,-43.98,-2.23,,,,,,33.333333333333336,-0.386,-0.648,0.657
1970-01-01 00:00:00.000087391,1755597878471,22.72,-43.99,-2.22,,,,,,34.48275862068966,-0.385,-0.649,0.659
1970-01-01 00:00:00.000087421,1755597878501,22.72,-43.96,-2.21,,,,,,33.333333333333336,-0.385,-0.649,0.658
1970-01-01 00:00:00.000087451,1755597878530,22.71,-43.94,-2.22,,,,,,33.333333333333336,-0.385,-0.648,0.655
1970-01-01 00:00:00.000087510,1755597878589,22.73,-44.0,-2.19,,,,,,33.333333333333336,-0.383,-0.647,0.658
1970-01-01 00:00:00.000087539,1755597878619,22.74,-44.0,-2.23,,,,,,34.48275862068966,-0.38,-0.646,0.658
1970-01-01 00:00:00.000087569,1755597878649,22.76,-44.0,-2.26,,,,,,33.333333333333336,-0.384,-0.649,0.656
1970-01-01 00:00:00.000087599,1755597878678,22.79,-44.04,-2.25,,,,,,33.333333333333336,-0.387,-0.65,0.654
1970-01-01 00:00:00.000087628,1755597878708,22.77,-44.03,-2.23,,,,,,34.48275862068966,-0.387,-0.651,0.654
1970-01-01 00:00:00.000087658,1755597878737,22.75,-44.04,-2.2,,,,,,33.333333333333336,-0.388,-0.651,0.656
1970-01-01 00:00:00.000087717,1755597878796,22.73,-43.94,-2.12,,,,,,33.333333333333336,-0.386,-0.655,0.658
1970-01-01 00:00:00.000087746,1755597878826,22.72,-43.94,-2.08,,,,,,34.48275862068966,-0.381,-0.649,0.656
1970-01-01 00:00:00.000087775,1755597878855,22.72,-43.92,-2.11,,,,,,34.48275862068966,-0.381,-0.642,0.657
1970-01-01 00:00:00.000087805,1755597878884,22.7,-43.93,-2.15,,,,,,33.333333333333336,-0.387,-0.643,0.655
1970-01-01 00:00:00.000087834,1755597878914,22.72,-43.98,-2.13,,,,,,34.48275862068966,-0.39,-0.646,0.656
1970-01-01 00:00:00.000087893,1755597878973,22.74,-43.93,-2.09,,,,,,34.48275862068966,-0.387,-0.646,0.654
1970-01-01 00:00:00.000087952,1755597879032,22.76,-44.01,-2.05,,,,,,34.48275862068966,-0.384,-0.65,0.657
1970-01-01 00:00:00.000087982,1755597879062,22.77,-43.95,-2.04,,,,,,33.333333333333336,-0.389,-0.647,0.657
1970-01-01 00:00:00.000088002,1755597879081,22.76,-43.92,-2.05,,,,,,50.0,-0.388,-0.644,0.654
1970-01-01 00:00:00.000088031,1755597879111,22.81,-43.97,-2.05,,,,,,34.48275862068966,-0.388,-0.641,0.653
1970-01-01 00:00:00.000088061,1755597879141,22.84,-43.99,-2.05,,,,,,33.333333333333336,-0.388,-0.641,0.658
1970-01-01 00:00:00.000088091,1755597879170,22.81,-43.97,-2.09,,,,,,33.333333333333336,-0.387,-0.643,0.658
1970-01-01 00:00:00.000088120,1755597879200,22.83,-43.99,-2.1,,,,,,34.48275862068966,-0.389,-0.645,0.655
1970-01-01 00:00:00.000088150,1755597879229,22.87,-44.04,-2.09,,,,,,33.333333333333336,-0.39,-0.644,0.652
1970-01-01 00:00:00.000088179,1755597879259,22.84,-44.07,-2.08,,,,,,34.48275862068966,-0.39,-0.645,0.655
1970-01-01 00:00:00.000088209,1755597879288,22.81,-44.07,-2.09,,,,,,33.333333333333336,-0.389,-0.646,0.657
1970-01-01 00:00:00.000088238,1755597879318,22.82,-44.06,-2.08,,,,,,34.48275862068966,-0.389,-0.648,0.657
1970-01-01 00:00:00.000088297,1755597879377,22.8,-44.05,-2.06,,,,,,34.48275862068966,-0.384,-0.645,0.656
1970-01-01 00:00:00.000088327,1755597879406,22.78,-44.03,-2.09,,,,,,33.333333333333336,-0.384,-0.645,0.656
1970-01-01 00:00:00.000088356,1755597879436,22.79,-44.08,-2.09,,,,,,34.48275862068966,-0.386,-0.647,0.656
1970-01-01 00:00:00.000088386,1755597879466,22.81,-44.09,-2.09,,,,,,33.333333333333336,-0.386,-0.647,0.658
1970-01-01 00:00:00.000088416,1755597879495,22.82,-44.07,-2.09,,,,,,33.333333333333336,-0.385,-0.648,0.656
1970-01-01 00:00:00.000088445,1755597879525,22.81,-44.1,-2.1,,,,,,34.48275862068966,-0.385,-0.648,0.655
1970-01-01 00:00:00.000088475,1755597879554,22.83,-44.11,-2.12,,,,,,33.333333333333336,-0.385,-0.647,0.655
1970-01-01 00:00:00.000088504,1755597879584,22.83,-44.14,-2.12,,,,,,34.48275862068966,-0.385,-0.648,0.654
1970-01-01 00:00:00.000088534,1755597879613,22.86,-44.17,-2.11,,,,,,33.333333333333336,-0.385,-0.646,0.654
1970-01-01 00:00:00.000088563,1755597879643,22.79,-44.15,-2.15,,,,,,34.48275862068966,-0.386,-0.645,0.654
1970-01-01 00:00:00.000088593,1755597879672,22.81,-44.16,-2.15,,,,,,33.333333333333336,-0.388,-0.648,0.656
1970-01-01 00:00:00.000088622,1755597879702,22.84,-44.15,-2.12,,,,,,34.48275862068966,-0.387,-0.649,0.655
1970-01-01 00:00:00.000088681,1755597879761,22.76,-44.13,-2.12,,,,,,34.48275862068966,-0.386,-0.652,0.652
1970-01-01 00:00:00.000088711,1755597879790,22.77,-44.14,-2.07,,,,,,33.333333333333336,-0.386,-0.652,0.652
1970-01-01 00:00:00.000088740,1755597879820,22.78,-44.16,-2.03,,,,,,34.48275862068966,-0.384,-0.648,0.654
1970-01-01 00:00:00.000088770,1755597879849,22.76,-44.18,-2.03,,,,,,33.333333333333336,-0.383,-0.643,0.656
1970-01-01 00:00:00.000088799,1755597879879,22.73,-44.2,-2.07,,,,,,34.48275862068966,-0.385,-0.64,0.657
1970-01-01 00:00:00.000088828,1755597879908,22.75,-44.23,-2.09,,,,,,34.48275862068966,-0.387,-0.644,0.658
1970-01-01 00:00:00.000088858,1755597879937,22.75,-44.22,-2.08,,,,,,33.333333333333336,-0.388,-0.647,0.656
1970-01-01 00:00:00.000088887,1755597879967,22.76,-44.22,-2.06,,,,,,34.48275862068966,-0.385,-0.648,0.655
1970-01-01 00:00:00.000088917,1755597879997,22.76,-44.24,-2.07,,,,,,33.333333333333336,-0.382,-0.647,0.655
1970-01-01 00:00:00.000088937,1755597880017,22.73,-44.25,-2.11,,,,,,50.0,-0.383,-0.646,0.657
1970-01-01 00:00:00.000088967,1755597880047,22.73,-44.24,-2.14,,,,,,33.333333333333336,-0.385,-0.648,0.659
1970-01-01 00:00:00.000089016,1755597880096,22.75,-44.23,-2.11,,,,,,34.48275862068966,-0.388,-0.649,0.655
1970-01-01 00:00:00.000089046,1755597880125,22.75,-44.23,-2.1,,,,,,33.333333333333336,-0.385,-0.648,0.653
1970-01-01 00:00:00.000089075,1755597880155,22.74,-44.26,-2.12,,,,,,34.48275862068966,-0.383,-0.646,0.654
1970-01-01 00:00:00.000089105,1755597880184,22.73,-44.28,-2.14,,,,,,33.333333333333336,-0.383,-0.647,0.657
1970-01-01 00:00:00.000089134,1755597880214,22.76,-44.3,-2.13,,,,,,34.48275862068966,-0.384,-0.648,0.657
1970-01-01 00:00:00.000089193,1755597880273,22.75,-44.31,-2.13,,,,,,34.48275862068966,-0.386,-0.651,0.654
1970-01-01 00:00:00.000089223,1755597880302,22.74,-44.34,-2.11,,,,,,33.333333333333336,-0.386,-0.653,0.652
1970-01-01 00:00:00.000089252,1755597880332,22.75,-44.36,-2.08,,,,,,34.48275862068966,-0.384,-0.652,0.652
1970-01-01 00:00:00.000089282,1755597880361,22.75,-44.36,-2.09,,,,,,33.333333333333336,-0.383,-0.65,0.655
