timestamp_ms,recv_timestamp_ms,pitch,roll,yaw,flex1,flex2,flex3,flex4,flex5,sampling_hz,accel_x,accel_y,accel_z
128569,1755602560836,19.06,-37.17,-1.1,763,780,770,376,833,34.48275862068966,-0.322,-0.58,0.752
128599,1755602560838,19.04,-37.05,-1.07,764,774,776,294,826,33.333333333333336,-0.323,-0.579,0.757
128628,1755602560840,19.01,-37.09,-1.09,768,777,777,308,832,34.48275862068966,-0.323,-0.578,0.752
128658,1755602560842,19.01,-37.19,-1.09,764,778,775,421,834,33.333333333333336,-0.323,-0.577,0.749
128687,1755602560844,19.04,-37.17,-1.06,758,771,774,391,824,34.48275862068966,-0.324,-0.576,0.75
128717,1755602560846,19.0,-37.15,-1.06,767,771,776,325,832,33.333333333333336,-0.323,-0.577,0.752
128746,1755602560848,18.98,-37.2,-1.07,770,780,780,323,824,34.48275862068966,-0.321,-0.578,0.753
128776,1755602560850,18.97,-37.26,-1.09,767,779,772,382,826,33.333333333333336,-0.32,-0.579,0.754
128806,1755602560852,18.98,-37.21,-1.08,766,767,772,435,832,33.333333333333336,-0.319,-0.579,0.756
128836,1755602560854,18.99,-37.16,-1.07,767,771,779,392,836,33.333333333333336,-0.319,-0.579,0.756
128865,1755602560856,18.95,-37.09,-1.08,763,771,775,311,834,34.48275862068966,-0.319,-0.578,0.753
128895,1755602560858,18.9,-37.16,-1.11,767,778,775,332,827,33.333333333333336,-0.32,-0.579,0.75
128925,1755602560861,18.91,-37.17,-1.08,772,778,774,444,834,33.333333333333336,-0.319,-0.578,0.751
128954,1755602560863,18.89,-37.17,-1.06,770,770,780,445,834,34.48275862068966,-0.32,-0.578,0.754
128984,1755602560865,18.85,-37.09,-1.05,767,774,777,386,828,33.333333333333336,-0.318,-0.579,0.756
129014,1755602560867,18.81,-37.16,-1.09,766,773,778,304,831,33.333333333333336,-0.317,-0.579,0.754
129043,1755602560869,18.8,-37.18,-1.08,763,772,776,366,829,34.48275862068966,-0.318,-0.579,0.754
129073,1755602560871,18.79,-37.18,-1.07,767,768,778,457,835,33.333333333333336,-0.318,-0.579,0.756
129103,1755602560873,18.76,-37.17,-1.07,774,777,774,421,833,33.333333333333336,-0.318,-0.579,0.757
129132,1755602560875,18.75,-37.17,-1.08,769,778,776,310,836,34.48275862068966,-0.316,-0.579,0.757
129162,1755602560877,18.76,-37.11,-1.06,770,776,775,324,831,33.333333333333336,-0.316,-0.578,0.756
129191,1755602560879,18.75,-37.12,-1.08,763,773,771,415,819,34.48275862068966,-0.316,-0.578,0.755
129221,1755602560881,18.72,-37.16,-1.12,766,775,774,418,832,33.333333333333336,-0.316,-0.58,0.756
129250,1755602560883,18.75,-37.16,-1.11,763,770,779,341,832,34.48275862068966,-0.316,-0.58,0.758
129280,1755602560885,18.77,-37.16,-1.11,771,771,773,303,832,33.333333333333336,-0.315,-0.58,0.759
129309,1755602560887,18.75,-37.1,-1.1,762,773,776,384,825,34.48275862068966,-0.314,-0.579,0.757
129330,1755602560889,18.76,-37.06,-1.09,770,777,776,293,830,47.61904761904762,-0.313,-0.579,0.756
129350,1755602560891,18.77,-37.03,-1.09,766,768,776,397,827,50.0,-0.313,-0.579,0.754
129380,1755602560893,18.74,-37.05,-1.11,769,775,779,345,826,33.333333333333336,-0.314,-0.579,0.751
129409,1755602560895,18.74,-37.11,-1.12,764,774,778,408,835,34.48275862068966,-0.316,-0.578,0.753
129439,1755602560897,18.75,-37.11,-1.11,763,777,777,450,835,33.333333333333336,-0.317,-0.576,0.755
129469,1755602560899,18.77,-37.07,-1.12,766,769,776,404,836,33.333333333333336,-0.316,-0.576,0.755
129498,1755602560901,18.78,-37.06,-1.12,761,772,776,314,832,34.48275862068966,-0.315,-0.578,0.755
129528,1755602560903,18.76,-37.14,-1.17,768,774,773,325,831,33.333333333333336,-0.316,-0.58,0.753
129557,1755602560906,18.78,-37.15,-1.15,760,780,776,428,829,34.48275862068966,-0.316,-0.579,0.753
129587,1755602560908,18.8,-37.25,-1.17,767,778,782,431,828,33.333333333333336,-0.317,-0.58,0.753
129617,1755602560910,18.79,-37.28,-1.19,769,776,773,338,824,33.333333333333336,-0.317,-0.581,0.755
129646,1755602560912,18.81,-37.21,-1.16,767,771,776,318,822,34.48275862068966,-0.317,-0.581,0.756
129676,1755602560914,18.84,-37.17,-1.13,767,767,776,386,832,33.333333333333336,-0.317,-0.582,0.755
129705,1755602560916,18.84,-37.19,-1.13,769,773,776,450,831,34.48275862068966,-0.318,-0.581,0.752
129735,1755602560918,18.84,-37.21,-1.12,764,766,771,380,833,33.333333333333336,-0.317,-0.58,0.75
129764,1755602560920,18.79,-37.23,-1.12,770,769,778,296,836,34.48275862068966,-0.318,-0.579,0.751
129794,1755602560922,18.73,-37.23,-1.13,767,778,783,348,833,33.333333333333336,-0.316,-0.579,0.752
129823,1755602560924,18.72,-37.3,-1.16,766,769,776,454,828,34.48275862068966,-0.316,-0.58,0.752
129853,1755602560927,18.72,-37.36,-1.15,764,769,778,435,831,33.333333333333336,-0.318,-0.582,0.751
129882,1755602560929,18.71,-37.39,-1.14,768,767,780,331,823,34.48275862068966,-0.317,-0.581,0.753
129912,1755602560930,18.71,-37.28,-1.11,769,776,772,308,835,33.333333333333336,-0.315,-0.579,0.753
129941,1755602560933,18.66,-37.42,-1.16,769,776,772,405,830,34.48275862068966,-0.314,-0.581,0.75
129971,1755602560935,18.59,-37.5,-1.18,764,770,770,418,836,33.333333333333336,-0.318,-0.583,0.752
130000,1755602560937,18.62,-37.49,-1.16,770,774,776,364,834,34.48275862068966,-0.32,-0.584,0.754
130030,1755602560938,18.64,-37.37,-1.11,774,773,773,307,830,33.333333333333336,-0.32,-0.583,0.757
130059,1755602560940,18.67,-37.25,-1.09,764,776,777,369,825,34.48275862068966,-0.317,-0.581,0.757
130089,1755602560942,18.71,-37.16,-1.08,769,776,777,468,830,33.333333333333336,-0.315,-0.581,0.754
130118,1755602560944,18.74,-37.14,-1.07,761,769,777,420,828,34.48275862068966,-0.315,-0.581,0.749
130177,1755602560948,18.66,-37.28,-1.11,763,769,772,350,835,34.48275862068966,-0.316,-0.581,0.75
130207,1755602560950,18.65,-37.28,-1.11,769,774,778,451,824,33.333333333333336,-0.316,-0.58,0.754
130237,1755602560953,18.64,-37.25,-1.1,768,771,772,424,822,33.333333333333336,-0.315,-0.582,0.756
130266,1755602560955,18.66,-37.19,-1.08,762,776,772,319,830,34.48275862068966,-0.315,-0.582,0.755
130296,1755602560957,18.68,-37.12,-1.05,761,779,779,299,838,33.333333333333336,-0.316,-0.581,0.752
130325,1755602560959,18.67,-37.13,-1.05,763,776,776,397,836,34.48275862068966,-0.316,-0.58,0.749
130355,1755602560961,18.64,-37.26,-1.08,760,769,776,444,825,33.333333333333336,-0.317,-0.581,0.749
130384,1755602560963,18.62,-37.25,-1.06,766,773,777,397,828,34.48275862068966,-0.317,-0.58,0.754
130414,1755602560965,18.65,-37.15,-1.02,765,774,773,293,826,33.333333333333336,-0.315,-0.58,0.757
130444,1755602560967,18.63,-37.19,-1.06,760,775,777,344,830,33.333333333333336,-0.313,-0.581,0.754
130474,1755602560969,18.62,-37.24,-1.09,759,773,772,460,839,33.333333333333336,-0.314,-0.58,0.75
130503,1755602560971,18.64,-37.23,-1.07,764,780,777,421,831,34.48275862068966,-0.316,-0.58,0.749
130533,1755602560974,18.61,-37.2,-1.05,761,771,776,323,825,33.333333333333336,-0.316,-0.579,0.752
130562,1755602560976,18.62,-37.18,-1.06,765,774,773,312,833,34.48275862068966,-0.315,-0.579,0.753
130621,1755602560980,18.66,-37.12,-1.03,770,779,776,453,833,34.48275862068966,-0.314,-0.58,0.752
130651,1755602560982,18.65,-37.11,-1.04,769,766,779,380,827,33.333333333333336,-0.314,-0.579,0.75
130710,1755602560986,18.58,-37.23,-1.09,765,766,775,369,827,33.333333333333336,-0.316,-0.582,0.753
130739,1755602560988,18.62,-37.15,-1.04,769,776,773,444,826,34.48275862068966,-0.317,-0.581,0.754
130769,1755602560990,18.64,-37.1,-1.03,763,771,772,412,828,33.333333333333336,-0.315,-0.579,0.751
130798,1755602560992,18.6,-37.15,-1.06,767,776,776,305,830,34.48275862068966,-0.315,-0.58,0.748
130828,1755602560994,18.61,-37.16,-1.05,771,776,774,333,824,33.333333333333336,-0.316,-0.581,0.751
130858,1755602560996,18.65,-37.16,-1.04,761,780,777,429,830,33.333333333333336,-0.316,-0.582,0.756
130878,1755602560998,18.64,-37.16,-1.04,766,773,775,307,827,50.0,-0.315,-0.583,0.76
130907,1755602561001,18.66,-37.1,-1.04,768,773,772,387,820,34.48275862068966,-0.313,-0.583,0.757
130937,1755602561003,18.7,-37.06,-1.01,769,766,775,400,826,33.333333333333336,-0.315,-0.582,0.752
130967,1755602561005,18.67,-37.05,-1.02,765,781,775,338,821,33.333333333333336,-0.317,-0.579,0.747
130996,1755602561007,18.64,-37.09,-1.02,759,776,770,298,833,34.48275862068966,-0.319,-0.579,0.746
131026,1755602561009,18.6,-37.18,-1.02,768,779,778,353,831,33.333333333333336,-0.321,-0.58,0.748
131055,1755602561011,18.59,-37.14,-0.97,767,768,776,433,828,34.48275862068966,-0.32,-0.579,0.751
131115,1755602561016,18.57,-37.11,-0.93,768,773,776,304,832,33.333333333333336,-0.314,-0.58,0.753
131144,1755602561018,18.56,-37.12,-0.94,769,772,779,327,830,34.48275862068966,-0.313,-0.578,0.751
131174,1755602561020,18.54,-37.12,-0.97,770,774,777,438,829,33.333333333333336,-0.315,-0.579,0.753
131204,1755602561023,18.57,-37.07,-0.98,763,782,776,446,832,33.333333333333336,-0.316,-0.58,0.754
131233,1755602561024,18.59,-37.09,-0.99,770,776,780,357,831,34.48275862068966,-0.317,-0.581,0.752
131263,1755602561027,18.57,-37.14,-1.01,761,778,778,306,836,33.333333333333336,-0.316,-0.58,0.751
131292,1755602561028,18.58,-37.16,-1.02,769,771,776,363,830,34.48275862068966,-0.316,-0.579,0.752
131322,1755602561030,18.59,-37.11,-1.02,766,770,778,444,824,33.333333333333336,-0.315,-0.58,0.753
131351,1755602561032,18.59,-37.09,-1.02,765,780,772,389,834,34.48275862068966,-0.313,-0.58,0.752
131381,1755602561034,18.61,-37.13,-1.03,763,775,772,302,833,33.333333333333336,-0.315,-0.58,0.752
131410,1755602561037,18.63,-37.14,-1.05,766,775,772,342,828,34.48275862068966,-0.315,-0.58,0.751
131440,1755602561039,18.62,-37.13,-1.06,768,769,776,440,834,33.333333333333336,-0.316,-0.579,0.751
131460,1755602561040,18.6,-37.15,-1.06,765,774,773,312,834,50.0,-0.315,-0.579,0.751
131490,1755602561043,18.58,-37.19,-1.08,766,773,777,439,827,33.333333333333336,-0.315,-0.581,0.75
131520,1755602561045,18.6,-37.23,-1.08,763,774,772,406,832,33.333333333333336,-0.315,-0.581,0.75
131549,1755602561047,18.62,-37.25,-1.08,761,772,772,329,836,34.48275862068966,-0.316,-0.58,0.75
131569,1755602561049,18.61,-37.26,-1.09,764,777,773,442,832,50.0,-0.317,-0.579,0.749
131599,1755602561051,18.61,-37.33,-1.11,765,780,775,290,824,33.333333333333336,-0.316,-0.58,0.749
131628,1755602561053,18.63,-37.37,-1.11,764,773,776,306,834,34.48275862068966,-0.316,-0.582,0.75
131658,1755602561055,18.64,-37.4,-1.1,768,776,775,382,825,33.333333333333336,-0.316,-0.584,0.75
131688,1755602561056,18.64,-37.37,-1.08,770,774,773,447,844,33.333333333333336,-0.316,-0.584,0.751
131747,1755602561060,18.64,-37.34,-1.08,764,780,772,287,831,34.48275862068966,-0.316,-0.583,0.748
131777,1755602561062,18.64,-37.36,-1.07,760,782,773,329,832,33.333333333333336,-0.317,-0.585,0.747
131806,1755602561064,18.6,-37.38,-1.08,767,776,780,447,824,34.48275862068966,-0.316,-0.586,0.749
131836,1755602561066,18.61,-37.34,-1.06,767,772,773,377,830,33.333333333333336,-0.317,-0.586,0.751
131865,1755602561068,18.62,-37.28,-1.03,762,778,776,309,834,34.48275862068966,-0.317,-0.585,0.749
131895,1755602561070,18.6,-37.27,-1.03,767,778,768,298,832,33.333333333333336,-0.316,-0.585,0.747
131925,1755602561072,18.59,-37.27,-1.01,767,773,778,395,830,33.333333333333336,-0.316,-0.584,0.748
131954,1755602561074,18.58,-37.31,-1.02,772,773,768,443,830,34.48275862068966,-0.315,-0.584,0.749
131984,1755602561076,19.03,-37.3,-1.0,759,772,775,370,830,33.333333333333336,-0.315,-0.583,0.752
132013,1755602561078,19.03,-37.28,-1.01,766,773,774,294,829,34.48275862068966,-0.314,-0.582,0.752
132043,1755602561080,19.03,-37.24,-1.0,766,767,777,355,833,33.333333333333336,-0.314,-0.583,0.751
132072,1755602561083,19.04,-37.3,-1.01,765,778,775,455,824,34.48275862068966,-0.315,-0.584,0.749
132132,1755602561087,19.04,-37.3,-1.01,773,774,777,319,836,33.333333333333336,-0.316,-0.58,0.747
132152,1755602561089,19.04,-37.33,-1.02,765,784,781,447,824,50.0,-0.315,-0.58,0.746
132182,1755602561091,19.04,-37.38,-1.03,768,774,776,308,829,33.333333333333336,-0.314,-0.582,0.749
132211,1755602561093,19.03,-37.41,-1.04,764,772,775,321,831,34.48275862068966,-0.312,-0.583,0.751
132241,1755602561095,19.03,-37.43,-1.07,767,774,773,415,825,33.333333333333336,-0.31,-0.582,0.751
132271,1755602561098,19.04,-37.43,-1.12,766,771,773,441,831,33.333333333333336,-0.312,-0.58,0.749
132300,1755602561099,18.98,-37.47,-1.21,766,778,771,322,832,34.48275862068966,-0.317,-0.582,0.746
132330,1755602561101,18.95,-37.54,-1.23,768,775,773,275,832,33.333333333333336,-0.32,-0.588,0.746
132359,1755602561104,19.01,-37.56,-1.17,767,770,779,357,829,34.48275862068966,-0.322,-0.59,0.75
132389,1755602561106,19.01,-37.49,-1.12,763,776,771,458,826,33.333333333333336,-0.318,-0.587,0.75
132419,1755602561108,19.01,-37.49,-1.11,769,768,772,418,833,33.333333333333336,-0.315,-0.585,0.748
132448,1755602561110,19.0,-37.51,-1.13,763,777,779,314,828,34.48275862068966,-0.314,-0.584,0.746
132478,1755602561112,18.98,-37.5,-1.13,765,780,777,339,833,33.333333333333336,-0.315,-0.585,0.748
132507,1755602561114,18.98,-37.46,-1.13,764,768,774,443,825,34.48275862068966,-0.315,-0.586,0.752
132537,1755602561116,18.98,-37.45,-1.13,765,779,773,430,833,33.333333333333336,-0.314,-0.586,0.751
132596,1755602561120,19.0,-37.43,-1.12,769,773,767,304,825,33.333333333333336,-0.316,-0.585,0.744
132654,1755602561124,18.99,-37.45,-1.1,768,766,772,450,833,34.48275862068966,-0.317,-0.586,0.747
132684,1755602561126,18.99,-37.46,-1.09,762,772,773,387,831,33.333333333333336,-0.316,-0.586,0.748
132713,1755602561128,18.99,-37.44,-1.07,765,780,780,299,838,34.48275862068966,-0.316,-0.586,0.748
132743,1755602561130,18.97,-37.44,-1.07,764,772,773,343,833,33.333333333333336,-0.316,-0.585,0.746
132772,1755602561132,18.97,-37.43,-1.05,761,779,778,443,832,34.48275862068966,-0.316,-0.585,0.745
132802,1755602561134,18.97,-37.48,-1.05,771,777,770,408,830,33.333333333333336,-0.317,-0.586,0.748
132831,1755602561136,18.96,-37.44,-1.04,769,769,775,299,826,34.48275862068966,-0.317,-0.585,0.75
132861,1755602561139,18.98,-37.39,-1.02,769,772,777,329,828,33.333333333333336,-0.316,-0.584,0.749
132891,1755602561141,18.98,-37.41,-1.05,764,780,778,432,834,33.333333333333336,-0.316,-0.583,0.746
132950,1755602561145,18.94,-37.47,-1.09,771,777,775,358,823,33.333333333333336,-0.318,-0.583,0.744
132970,1755602561148,18.94,-37.47,-1.09,767,771,780,428,822,50.0,-0.319,-0.585,0.748
133000,1755602561150,18.94,-37.46,-1.09,769,768,780,349,833,33.333333333333336,-0.319,-0.587,0.751
133029,1755602561152,18.94,-37.46,-1.08,767,768,775,313,829,34.48275862068966,-0.317,-0.586,0.75
133059,1755602561154,18.95,-37.45,-1.08,772,774,776,360,831,33.333333333333336,-0.316,-0.583,0.747
133089,1755602561156,18.91,-37.48,-1.12,768,779,769,434,832,33.333333333333336,-0.317,-0.583,0.746
133119,1755602561158,18.87,-37.5,-1.14,767,779,775,393,823,33.333333333333336,-0.319,-0.586,0.746
133148,1755602561160,18.89,-37.52,-1.11,768,774,777,305,830,34.48275862068966,-0.32,-0.587,0.747
133178,1755602561162,18.88,-37.5,-1.09,765,774,775,315,828,33.333333333333336,-0.319,-0.587,0.749
133208,1755602561164,18.89,-37.47,-1.06,762,776,781,373,823,33.333333333333336,-0.317,-0.587,0.749
133237,1755602561166,18.89,-37.48,-1.06,762,777,770,432,832,34.48275862068966,-0.316,-0.585,0.748
133267,1755602561168,18.85,-37.5,-1.08,763,772,776,374,832,33.333333333333336,-0.315,-0.585,0.749
133326,1755602561172,18.88,-37.47,-1.09,765,774,770,362,824,33.333333333333336,-0.317,-0.584,0.749
133355,1755602561174,18.87,-37.47,-1.11,767,774,773,444,834,34.48275862068966,-0.318,-0.585,0.751
133375,1755602561176,18.89,-37.44,-1.09,764,769,767,319,827,50.0,-0.318,-0.586,0.751
133405,1755602561178,18.92,-37.43,-1.07,765,774,772,419,832,33.333333333333336,-0.317,-0.585,0.748
133434,1755602561180,18.91,-37.44,-1.09,763,776,777,373,829,34.48275862068966,-0.317,-0.583,0.745
133464,1755602561182,18.88,-37.49,-1.11,766,775,774,276,827,33.333333333333336,-0.318,-0.58,0.744
133494,1755602561184,18.85,-37.52,-1.14,766,771,779,271,834,33.333333333333336,-0.32,-0.582,0.745
133553,1755602561188,18.78,-37.6,-1.18,765,770,767,404,832,34.48275862068966,-0.32,-0.584,0.746
133612,1755602561192,18.76,-37.59,-1.21,759,779,771,292,830,34.48275862068966,-0.313,-0.587,0.749
133642,1755602561194,18.74,-37.59,-1.24,766,770,774,358,825,33.333333333333336,-0.311,-0.586,0.749
133671,1755602561195,18.7,-37.6,-1.27,768,773,780,450,833,34.48275862068966,-0.312,-0.586,0.751
133701,1755602561198,18.72,-37.56,-1.26,762,770,777,403,836,33.333333333333336,-0.314,-0.586,0.753
133730,1755602561200,18.75,-37.55,-1.26,769,774,771,298,829,34.48275862068966,-0.313,-0.586,0.752
133760,1755602561202,18.74,-37.57,-1.28,768,772,779,328,829,33.333333333333336,-0.312,-0.586,0.749
133789,1755602561205,18.75,-37.56,-1.29,767,777,777,438,833,34.48275862068966,-0.312,-0.586,0.749
133819,1755602561207,18.75,-37.56,-1.31,764,775,771,422,842,33.333333333333336,-0.312,-0.586,0.749
133849,1755602561209,18.75,-37.56,-1.34,763,769,776,324,828,33.333333333333336,-0.313,-0.588,0.75
133878,1755602561211,18.76,-37.55,-1.33,765,771,777,306,829,34.48275862068966,-0.314,-0.59,0.75
133908,1755602561213,18.81,-37.54,-1.32,763,767,767,400,837,33.333333333333336,-0.315,-0.589,0.748
133937,1755602561215,18.81,-37.52,-1.32,762,774,773,448,832,34.48275862068966,-0.315,-0.587,0.747
133967,1755602561217,18.8,-37.53,-1.35,764,780,782,378,832,33.333333333333336,-0.316,-0.586,0.746
133997,1755602561219,18.8,-37.56,-1.37,764,772,778,303,829,33.333333333333336,-0.318,-0.587,0.747
134056,1755602561223,18.82,-37.56,-1.34,768,774,775,459,832,33.333333333333336,-0.316,-0.59,0.75
134076,1755602561225,18.83,-37.55,-1.33,765,779,773,321,828,50.0,-0.315,-0.589,0.749
134106,1755602561227,18.84,-37.55,-1.34,759,777,776,442,832,33.333333333333336,-0.314,-0.588,0.746
134136,1755602561229,18.84,-37.58,-1.34,769,777,770,417,830,33.333333333333336,-0.315,-0.588,0.746
134165,1755602561231,18.85,-37.58,-1.33,768,773,774,282,823,34.48275862068966,-0.316,-0.588,0.747
134195,1755602561233,18.87,-37.56,-1.31,770,771,775,286,823,33.333333333333336,-0.315,-0.59,0.751
134225,1755602561235,18.95,-37.5,-1.28,765,778,774,375,825,33.333333333333336,-0.313,-0.591,0.756
134254,1755602561237,19.01,-37.4,-1.29,768,767,776,442,828,34.48275862068966,-0.311,-0.588,0.754
134284,1755602561239,18.99,-37.39,-1.34,767,773,777,378,831,33.333333333333336,-0.314,-0.585,0.744
134313,1755602561241,18.96,-37.43,-1.36,764,777,776,286,829,34.48275862068966,-0.322,-0.586,0.735
134343,1755602561243,18.94,-37.53,-1.33,767,773,770,352,827,33.333333333333336,-0.327,-0.587,0.732
134402,1755602561247,18.85,-37.62,-1.22,765,777,778,418,828,33.333333333333336,-0.319,-0.589,0.748
134432,1755602561249,18.86,-37.57,-1.21,764,772,777,314,819,33.333333333333336,-0.316,-0.588,0.751
134461,1755602561251,18.83,-37.56,-1.22,763,775,776,323,826,34.48275862068966,-0.317,-0.588,0.749
134491,1755602561253,18.82,-37.55,-1.2,769,769,768,415,829,33.333333333333336,-0.319,-0.587,0.745
134520,1755602561255,18.82,-37.55,-1.16,767,768,769,444,823,34.48275862068966,-0.32,-0.586,0.744
134540,1755602561257,18.81,-37.57,-1.14,767,773,777,381,828,50.0,-0.319,-0.586,0.746
134560,1755602561259,18.8,-37.59,-1.13,764,776,776,304,832,50.0,-0.316,-0.586,0.748
134620,1755602561263,18.79,-37.59,-1.15,768,770,774,385,828,33.333333333333336,-0.316,-0.586,0.749
134649,1755602561265,18.79,-37.58,-1.14,763,777,779,328,836,34.48275862068966,-0.317,-0.587,0.749
134679,1755602561266,18.81,-37.59,-1.13,768,768,768,287,838,33.333333333333336,-0.317,-0.586,0.748
134708,1755602561268,18.8,-37.61,-1.13,767,770,778,357,830,34.48275862068966,-0.316,-0.585,0.747
134738,1755602561271,18.8,-37.62,-1.14,766,775,772,434,829,33.333333333333336,-0.314,-0.586,0.748
134768,1755602561273,18.81,-37.62,-1.16,763,780,777,409,831,33.333333333333336,-0.314,-0.585,0.749
134797,1755602561274,18.83,-37.63,-1.19,767,772,777,304,822,34.48275862068966,-0.316,-0.585,0.75
134826,1755602561276,18.83,-37.59,-1.2,771,773,771,329,830,34.48275862068966,-0.318,-0.587,0.749
134856,1755602561278,18.84,-37.58,-1.21,762,767,770,440,831,33.333333333333336,-0.319,-0.588,0.744
134885,1755602561280,18.83,-37.63,-1.2,766,774,780,416,827,34.48275862068966,-0.319,-0.587,0.743
134915,1755602561282,18.85,-37.64,-1.21,770,781,771,301,823,33.333333333333336,-0.318,-0.587,0.747
134944,1755602561284,18.85,-37.61,-1.21,767,771,774,322,837,34.48275862068966,-0.317,-0.588,0.75
135033,1755602561291,18.89,-37.58,-1.26,765,780,777,374,834,34.48275862068966,-0.318,-0.584,0.745
135093,1755602561295,18.89,-37.56,-1.25,766,772,778,348,830,33.333333333333336,-0.323,-0.591,0.747
135122,1755602561297,18.92,-37.57,-1.22,764,774,773,455,834,34.48275862068966,-0.322,-0.589,0.746
135152,1755602561299,18.89,-37.57,-1.23,768,779,778,418,832,33.333333333333336,-0.32,-0.588,0.746
135182,1755602561301,18.88,-37.54,-1.22,765,775,774,313,832,33.333333333333336,-0.32,-0.588,0.745
135211,1755602561303,18.89,-37.57,-1.2,764,772,780,319,830,34.48275862068966,-0.322,-0.588,0.744
135241,1755602561305,18.88,-37.61,-1.19,763,776,775,404,826,33.333333333333336,-0.322,-0.587,0.746
135270,1755602561307,18.92,-37.15,-1.15,769,777,779,433,830,34.48275862068966,-0.322,-0.586,0.747
135329,1755602561311,18.88,-37.19,-1.17,767,776,779,290,827,34.48275862068966,-0.318,-0.585,0.745
135388,1755602561315,18.91,-37.21,-1.17,769,773,779,440,827,34.48275862068966,-0.32,-0.587,0.748
135418,1755602561317,18.92,-37.22,-1.17,761,771,776,411,830,33.333333333333336,-0.321,-0.587,0.747
135438,1755602561319,18.92,-37.24,-1.18,762,765,778,406,826,50.0,-0.321,-0.587,0.747
135467,1755602561321,18.93,-37.25,-1.18,768,774,775,338,823,34.48275862068966,-0.321,-0.587,0.746
135497,1755602561323,18.93,-37.23,-1.19,771,775,775,281,830,33.333333333333336,-0.321,-0.587,0.745
135526,1755602561325,18.92,-37.27,-1.21,770,767,778,330,833,34.48275862068966,-0.321,-0.586,0.744
135556,1755602561327,18.9,-37.31,-1.23,768,774,783,436,831,33.333333333333336,-0.321,-0.587,0.745
135585,1755602561330,18.9,-37.31,-1.24,771,769,777,398,836,34.48275862068966,-0.321,-0.588,0.747
135615,1755602561331,18.9,-37.3,-1.23,768,773,778,314,827,33.333333333333336,-0.32,-0.589,0.748
135644,1755602561334,18.92,-37.31,-1.23,767,776,771,316,834,34.48275862068966,-0.319,-0.588,0.748
135674,1755602561336,18.89,-37.32,-1.23,765,774,775,405,830,33.333333333333336,-0.318,-0.587,0.747
135704,1755602561338,18.89,-37.33,-1.23,769,773,776,446,828,33.333333333333336,-0.318,-0.587,0.747
135763,1755602561342,18.86,-37.36,-1.25,768,774,783,300,833,33.333333333333336,-0.319,-0.588,0.746
135792,1755602561344,18.87,-37.38,-1.25,766,772,774,349,824,34.48275862068966,-0.319,-0.589,0.747
135822,1755602561346,18.86,-37.37,-1.25,767,774,782,448,829,33.333333333333336,-0.32,-0.589,0.748
135851,1755602561348,18.87,-37.36,-1.24,766,767,774,423,833,34.48275862068966,-0.32,-0.588,0.747
135881,1755602561351,18.88,-37.37,-1.24,768,777,780,317,824,33.333333333333336,-0.32,-0.588,0.746
135910,1755602561352,18.86,-37.4,-1.26,761,774,779,336,834,34.48275862068966,-0.32,-0.589,0.745
135940,1755602561355,18.88,-37.41,-1.26,769,780,777,439,820,33.333333333333336,-0.32,-0.589,0.748
135970,1755602561357,18.88,-37.39,-1.25,766,772,769,433,831,33.333333333333336,-0.32,-0.588,0.748
135999,1755602561359,18.86,-37.36,-1.26,766,774,775,335,833,34.48275862068966,-0.32,-0.588,0.746
136028,1755602561361,18.86,-37.41,-1.27,765,773,777,266,828,34.48275862068966,-0.32,-0.589,0.744
136058,1755602561363,18.9,-37.45,-1.26,761,776,775,369,831,33.333333333333336,-0.318,-0.593,0.746
136117,1755602561366,18.9,-37.36,-1.23,768,775,776,394,827,34.48275862068966,-0.323,-0.585,0.746
136147,1755602561368,18.73,-37.28,-1.26,767,779,772,313,828,33.333333333333336,-0.328,-0.584,0.742
136176,1755602561370,18.58,-37.34,-1.24,761,772,776,332,828,34.48275862068966,-0.329,-0.586,0.741
136206,1755602561372,18.6,-37.42,-1.14,766,769,767,448,827,33.333333333333336,-0.327,-0.587,0.74
136265,1755602561377,18.54,-37.62,-1.03,762,778,776,332,835,33.333333333333336,-0.317,-0.588,0.748
136294,1755602561379,18.6,-37.6,-0.99,771,778,776,309,830,34.48275862068966,-0.311,-0.587,0.754
136324,1755602561381,18.67,-37.59,-1.01,768,779,780,418,833,33.333333333333336,-0.308,-0.588,0.755
136383,1755602561384,18.77,-37.54,-1.09,770,771,782,368,832,33.333333333333336,-0.31,-0.591,0.751
136412,1755602561386,18.82,-37.49,-1.11,762,768,773,321,829,34.48275862068966,-0.315,-0.59,0.749
136442,1755602561388,18.84,-37.47,-1.12,770,774,775,358,826,33.333333333333336,-0.319,-0.588,0.748
136471,1755602561390,18.86,-37.5,-1.14,766,775,775,441,823,34.48275862068966,-0.321,-0.588,0.748
136501,1755602561392,18.91,-37.5,-1.12,764,775,782,393,831,33.333333333333336,-0.322,-0.59,0.748
136560,1755602561397,18.94,-37.47,-1.08,770,771,781,321,828,33.333333333333336,-0.319,-0.59,0.745
136590,1755602561398,18.94,-37.49,-1.06,760,772,774,420,830,33.333333333333336,-0.319,-0.589,0.746
136610,1755602561401,18.95,-37.48,-1.03,759,776,775,303,829,50.0,-0.318,-0.587,0.747
136640,1755602561403,18.93,-37.5,-1.03,766,773,774,397,829,33.333333333333336,-0.319,-0.585,0.745
136670,1755602561404,18.88,-37.53,-1.03,761,771,777,418,829,33.333333333333336,-0.321,-0.583,0.744
136700,1755602561406,18.87,-37.58,-1.0,766,778,774,363,833,33.333333333333336,-0.323,-0.584,0.745
136729,1755602561408,18.84,-37.64,-1.0,768,779,771,299,834,34.48275862068966,-0.322,-0.586,0.745
136759,1755602561410,18.84,-37.64,-0.97,765,766,779,352,827,33.333333333333336,-0.322,-0.587,0.746
136789,1755602561412,18.85,-37.63,-0.95,767,781,776,458,835,33.333333333333336,-0.323,-0.589,0.747
136819,1755602561414,18.83,-37.62,-0.96,765,772,770,447,821,33.333333333333336,-0.322,-0.588,0.744
136848,1755602561440,18.83,-37.63,-0.95,763,776,780,332,824,34.48275862068966,-0.323,-0.59,0.741
136878,1755602561470,18.79,-37.66,-0.95,763,776,778,336,830,33.333333333333336,-0.325,-0.59,0.74
136907,1755602561500,18.74,-37.69,-0.92,765,770,775,409,835,34.48275862068966,-0.327,-0.59,0.742
136937,1755602561530,18.74,-37.72,-0.86,763,779,778,436,837,33.333333333333336,-0.325,-0.59,0.746
136967,1755602561559,18.71,-37.69,-0.81,766,781,779,400,829,33.333333333333336,-0.32,-0.589,0.749
136996,1755602561588,18.71,-37.66,-0.78,769,772,776,319,830,34.48275862068966,-0.316,-0.588,0.749
137026,1755602561618,18.7,-37.67,-0.78,766,772,770,355,827,33.333333333333336,-0.316,-0.587,0.747
137055,1755602561647,18.69,-37.66,-0.77,770,774,770,470,830,34.48275862068966,-0.317,-0.585,0.746
137085,1755602561677,18.7,-37.67,-0.76,765,772,772,422,830,33.333333333333336,-0.319,-0.584,0.744
137114,1755602561707,18.71,-37.68,-0.75,767,773,775,326,833,34.48275862068966,-0.319,-0.585,0.745
137144,1755602561736,18.73,-37.69,-0.74,769,774,776,315,827,33.333333333333336,-0.32,-0.586,0.746
137173,1755602561766,18.73,-37.7,-0.73,765,780,773,424,826,34.48275862068966,-0.32,-0.587,0.745
137193,1755602561786,18.74,-37.73,-0.73,764,780,771,308,828,50.0,-0.32,-0.587,0.743
137223,1755602561815,18.74,-37.74,-0.73,770,778,778,426,827,33.333333333333336,-0.322,-0.587,0.743
137253,1755602561845,18.74,-37.76,-0.73,766,775,773,440,828,33.333333333333336,-0.323,-0.587,0.744
137282,1755602561875,18.75,-37.77,-0.73,769,773,771,351,833,34.48275862068966,-0.323,-0.589,0.746
