timestamp_ms,recv_timestamp_ms,pitch,roll,yaw,flex1,flex2,flex3,flex4,flex5,sampling_hz,accel_x,accel_y,accel_z
37872,1755606366133,16.8,56.79,2.11,793,778,781,401,894,33.333333333333336,-0.293,0.808,0.531
37901,1755606366135,16.87,56.71,2.07,791,775,779,368,896,34.48275862068966,-0.293,0.808,0.524
37931,1755606366137,16.83,56.45,2.12,790,773,779,353,892,33.333333333333336,-0.296,0.799,0.518
37960,1755606366140,16.74,56.26,2.21,790,778,776,402,898,34.48275862068966,-0.296,0.804,0.527
37990,1755606366142,16.83,56.18,2.19,791,775,782,421,896,33.333333333333336,-0.295,0.806,0.542
38019,1755606366144,16.92,56.32,2.27,789,777,779,376,896,34.48275862068966,-0.291,0.803,0.544
38048,1755606366146,17.01,56.38,2.25,791,775,781,352,895,34.48275862068966,-0.287,0.803,0.529
38078,1755606366148,17.0,56.28,2.21,792,772,776,383,895,33.333333333333336,-0.289,0.802,0.529
38108,1755606366150,16.94,56.27,2.21,791,778,781,425,899,33.333333333333336,-0.29,0.806,0.543
38138,1755606366152,17.06,56.33,2.11,788,770,777,395,898,33.333333333333336,-0.292,0.805,0.543
38167,1755606366154,17.08,56.41,2.17,792,777,773,357,898,34.48275862068966,-0.29,0.798,0.532
38197,1755606366156,17.02,56.33,2.18,793,771,777,359,894,33.333333333333336,-0.29,0.8,0.532
38226,1755606366158,17.03,56.26,2.13,795,777,778,420,898,34.48275862068966,-0.292,0.802,0.54
38256,1755606366160,17.12,56.36,2.09,790,776,779,414,902,33.333333333333336,-0.296,0.802,0.537
38285,1755606366162,17.06,56.41,2.18,786,782,781,371,898,34.48275862068966,-0.295,0.799,0.528
38315,1755606366164,17.01,56.23,2.13,785,768,778,363,895,33.333333333333336,-0.289,0.8,0.53
38345,1755606366166,17.08,56.21,2.04,793,774,781,377,897,33.333333333333336,-0.294,0.801,0.542
38375,1755606366168,17.11,56.43,2.19,790,773,782,404,898,33.333333333333336,-0.297,0.802,0.54
38404,1755606366170,17.14,56.4,2.16,792,781,775,397,896,34.48275862068966,-0.292,0.803,0.527
38433,1755606366172,17.13,56.32,2.11,789,777,781,352,900,34.48275862068966,-0.295,0.8,0.527
38463,1755606366174,17.09,56.36,2.19,794,781,778,368,893,33.333333333333336,-0.296,0.805,0.53
38492,1755606366176,17.1,56.38,2.17,794,775,782,417,896,34.48275862068966,-0.292,0.805,0.532
38521,1755606366178,17.17,56.32,2.1,787,781,779,404,896,34.48275862068966,-0.293,0.802,0.529
38580,1755606366182,17.04,56.13,2.04,792,777,778,367,895,34.48275862068966,-0.289,0.8,0.537
38609,1755606366183,17.28,56.13,1.81,787,773,781,409,896,34.48275862068966,-0.293,0.796,0.554
38639,1755606366186,17.45,56.31,1.98,790,780,779,409,896,33.333333333333336,-0.299,0.798,0.546
38668,1755606366187,17.57,56.33,2.15,792,778,778,333,900,34.48275862068966,-0.292,0.8,0.525
38697,1755606366189,17.46,56.22,2.19,793,780,781,338,897,34.48275862068966,-0.29,0.804,0.517
38727,1755606366191,17.39,56.23,2.13,787,772,777,387,906,33.333333333333336,-0.296,0.807,0.525
38756,1755606366193,17.35,56.3,2.11,793,777,776,420,899,34.48275862068966,-0.297,0.805,0.538
38785,1755606366195,17.44,56.34,2.03,788,782,782,388,896,34.48275862068966,-0.298,0.796,0.544
38815,1755606366197,17.63,56.48,2.08,786,781,777,350,895,33.333333333333336,-0.294,0.792,0.547
38874,1755606366201,18.11,57.21,2.33,794,780,780,411,899,33.333333333333336,-0.294,0.807,0.525
38903,1755606366203,18.19,57.34,2.15,787,772,781,373,901,34.48275862068966,-0.297,0.806,0.511
38932,1755606366205,18.12,57.26,2.08,790,775,773,334,898,34.48275862068966,-0.301,0.806,0.513
38962,1755606366207,18.05,57.17,2.15,792,776,777,363,901,33.333333333333336,-0.297,0.801,0.523
38991,1755606366209,18.13,57.18,2.12,793,776,780,406,894,34.48275862068966,-0.297,0.807,0.522
39020,1755606366211,18.15,57.13,2.08,793,769,780,397,897,34.48275862068966,-0.3,0.812,0.513
39050,1755606366213,18.0,57.07,2.15,787,778,780,362,898,33.333333333333336,-0.301,0.807,0.509
39080,1755606366215,17.92,57.05,2.18,791,772,779,328,895,33.333333333333336,-0.302,0.808,0.523
39109,1755606366217,18.04,57.1,2.1,793,775,780,400,895,34.48275862068966,-0.304,0.807,0.523
39138,1755606366219,17.97,57.2,2.31,792,777,777,361,894,34.48275862068966,-0.299,0.809,0.51
39198,1755606366223,17.86,56.93,2.08,787,770,779,336,899,33.333333333333336,-0.296,0.809,0.506
39227,1755606366225,17.77,56.93,2.15,794,780,776,379,896,34.48275862068966,-0.303,0.811,0.513
39257,1755606366228,17.69,56.95,2.2,793,776,781,405,893,33.333333333333336,-0.302,0.809,0.516
39287,1755606366229,17.58,56.9,2.26,792,777,775,389,896,33.333333333333336,-0.301,0.806,0.518
39316,1755606366231,17.51,56.9,2.35,787,776,779,315,898,34.48275862068966,-0.302,0.804,0.525
39346,1755606366233,17.52,56.9,2.44,792,769,778,340,899,33.333333333333336,-0.298,0.807,0.527
39375,1755606366235,17.63,56.86,2.3,794,775,778,385,899,34.48275862068966,-0.296,0.805,0.524
39404,1755606366237,17.55,56.89,2.42,791,776,783,377,894,34.48275862068966,-0.298,0.807,0.527
39434,1755606366239,17.51,56.92,2.47,789,779,774,350,898,33.333333333333336,-0.292,0.804,0.521
39463,1755606366241,17.63,56.77,2.3,793,771,779,362,895,34.48275862068966,-0.294,0.803,0.514
39492,1755606366243,17.57,56.76,2.48,792,779,779,402,903,34.48275862068966,-0.295,0.808,0.518
39522,1755606366245,17.59,56.77,2.46,790,779,779,408,896,33.333333333333336,-0.284,0.812,0.527
39552,1755606366247,17.67,56.72,2.2,791,780,778,372,899,33.333333333333336,-0.283,0.809,0.53
39581,1755606366249,17.71,56.67,2.18,790,777,781,343,893,34.48275862068966,-0.292,0.806,0.528
39611,1755606366251,17.65,56.74,2.36,794,769,774,376,892,33.333333333333336,-0.289,0.807,0.521
39640,1755606366253,17.7,56.71,2.3,788,775,779,408,901,34.48275862068966,-0.29,0.81,0.522
39670,1755606366255,17.66,56.77,2.32,791,777,781,340,890,33.333333333333336,-0.292,0.811,0.532
39699,1755606366257,17.7,56.88,2.3,793,771,778,296,895,34.48275862068966,-0.293,0.814,0.532
39728,1755606366259,17.72,57.03,2.29,789,780,781,330,897,34.48275862068966,-0.289,0.805,0.53
39758,1755606366261,17.74,56.99,2.23,791,769,779,395,894,33.333333333333336,-0.29,0.807,0.529
39788,1755606366263,17.79,57.04,2.15,788,778,779,403,894,33.333333333333336,-0.296,0.806,0.531
39817,1755606366264,17.88,57.25,2.16,789,780,777,362,909,34.48275862068966,-0.303,0.807,0.533
39846,1755606366267,17.93,57.33,2.18,790,774,781,348,894,34.48275862068966,-0.299,0.808,0.519
39876,1755606366269,17.84,57.16,2.22,787,775,779,393,900,33.333333333333336,-0.293,0.804,0.509
39905,1755606366270,17.76,57.06,2.21,792,775,778,405,894,34.48275862068966,-0.292,0.808,0.519
39935,1755606366272,17.79,57.19,2.16,793,775,773,373,899,33.333333333333336,-0.292,0.814,0.53
39965,1755606366274,17.89,57.34,2.01,793,778,778,345,897,33.333333333333336,-0.292,0.812,0.524
39994,1755606366276,17.88,57.27,1.95,791,779,774,400,894,34.48275862068966,-0.295,0.806,0.511
40024,1755606366278,17.78,57.23,2.07,791,776,779,425,910,33.333333333333336,-0.298,0.807,0.515
40083,1755606366282,17.86,57.39,2.0,791,775,778,337,892,33.333333333333336,-0.298,0.81,0.515
40112,1755606366284,17.82,57.37,2.07,789,780,778,365,898,34.48275862068966,-0.298,0.806,0.51
40142,1755606366286,17.79,57.33,2.09,790,780,778,395,894,33.333333333333336,-0.297,0.809,0.514
40171,1755606366288,17.78,57.35,2.09,793,779,779,399,895,34.48275862068966,-0.298,0.811,0.52
40200,1755606366290,17.81,57.38,2.02,792,774,779,354,893,34.48275862068966,-0.298,0.808,0.515
40230,1755606366292,17.78,57.48,2.06,794,770,780,355,895,33.333333333333336,-0.301,0.803,0.516
40259,1755606366293,17.81,57.43,2.1,791,781,780,395,890,34.48275862068966,-0.3,0.805,0.518
40289,1755606366295,17.83,57.46,2.1,791,776,779,409,897,33.333333333333336,-0.295,0.81,0.513
40318,1755606366310,17.77,57.5,2.11,788,772,779,372,897,34.48275862068966,-0.292,0.808,0.513
40347,1755606366339,17.75,57.47,2.08,792,775,780,345,893,34.48275862068966,-0.292,0.809,0.515
40377,1755606366369,17.75,57.47,2.04,786,776,779,377,897,33.333333333333336,-0.295,0.809,0.519
40406,1755606366398,17.78,57.55,2.01,791,780,780,413,896,34.48275862068966,-0.298,0.812,0.52
40436,1755606366428,17.79,57.59,2.03,791,780,775,394,897,33.333333333333336,-0.298,0.808,0.516
40465,1755606366457,17.8,57.5,2.03,792,772,782,364,893,34.48275862068966,-0.296,0.809,0.51
40495,1755606366487,17.75,57.5,2.05,789,776,777,371,897,33.333333333333336,-0.295,0.814,0.514
40525,1755606366516,17.77,57.53,1.97,788,775,780,422,892,33.333333333333336,-0.294,0.815,0.52
40554,1755606366546,17.83,57.58,1.89,791,776,781,405,903,34.48275862068966,-0.292,0.813,0.519
40583,1755606366575,17.96,57.6,1.7,791,778,776,336,896,34.48275862068966,-0.296,0.812,0.519
40613,1755606366604,18.03,57.71,1.58,792,776,777,355,894,33.333333333333336,-0.305,0.812,0.515
40642,1755606366634,18.01,57.74,1.53,793,779,780,410,894,34.48275862068966,-0.307,0.808,0.508
40671,1755606366663,17.97,57.72,1.59,790,779,782,419,893,34.48275862068966,-0.309,0.809,0.513
40701,1755606366693,17.99,57.76,1.61,790,775,774,357,895,33.333333333333336,-0.307,0.812,0.512
40730,1755606366722,17.96,57.79,1.62,792,780,776,358,897,34.48275862068966,-0.303,0.811,0.508
40760,1755606366751,17.94,57.77,1.6,788,771,781,358,892,33.333333333333336,-0.303,0.811,0.509
40789,1755606366781,17.93,57.82,1.59,791,778,779,393,895,34.48275862068966,-0.305,0.813,0.511
40819,1755606366810,17.94,57.81,1.57,791,777,780,372,900,33.333333333333336,-0.306,0.811,0.508
40848,1755606366840,17.92,57.79,1.6,792,781,774,352,897,34.48275862068966,-0.308,0.81,0.507
40877,1755606366869,17.91,57.74,1.63,792,779,779,394,891,34.48275862068966,-0.306,0.81,0.508
40907,1755606366898,17.88,57.79,1.62,790,778,780,417,896,33.333333333333336,-0.301,0.815,0.508
40936,1755606366927,17.86,57.81,1.54,785,778,775,383,898,34.48275862068966,-0.301,0.813,0.508
40965,1755606366957,17.84,57.76,1.52,787,776,779,351,897,34.48275862068966,-0.305,0.808,0.509
40995,1755606366986,17.84,57.74,1.55,787,776,780,384,894,33.333333333333336,-0.308,0.81,0.511
41024,1755606367016,17.87,57.78,1.55,792,777,774,412,891,34.48275862068966,-0.307,0.814,0.514
41053,1755606367045,17.91,57.8,1.5,790,780,775,394,893,34.48275862068966,-0.303,0.811,0.513
41083,1755606367075,17.98,57.87,1.4,787,776,778,355,894,33.333333333333336,-0.301,0.813,0.513
41112,1755606367104,18.08,57.8,1.24,793,776,779,362,895,34.48275862068966,-0.303,0.812,0.514
41141,1755606367133,18.1,57.84,1.17,793,774,778,397,893,34.48275862068966,-0.307,0.811,0.507
41171,1755606367163,18.03,57.82,1.2,792,780,775,404,896,33.333333333333336,-0.312,0.806,0.504
41200,1755606367192,18.01,57.8,1.27,795,775,779,350,895,34.48275862068966,-0.318,0.813,0.51
41230,1755606367222,18.04,57.91,1.32,792,776,780,345,892,33.333333333333336,-0.313,0.815,0.514
41259,1755606367251,18.03,57.94,1.36,796,778,775,402,892,34.48275862068966,-0.31,0.814,0.506
41289,1755606367281,17.97,57.85,1.37,791,774,781,367,893,33.333333333333336,-0.304,0.811,0.503
41318,1755606367310,17.95,57.79,1.34,789,773,779,355,899,34.48275862068966,-0.305,0.816,0.509
41348,1755606367339,17.95,57.86,1.3,788,774,780,331,897,33.333333333333336,-0.307,0.816,0.512
41377,1755606367369,17.97,57.85,1.25,791,780,781,361,893,34.48275862068966,-0.308,0.812,0.508
41407,1755606367399,17.94,57.83,1.3,794,774,775,402,899,33.333333333333336,-0.313,0.811,0.508
41436,1755606367428,17.87,57.81,1.4,787,774,779,391,900,34.48275862068966,-0.308,0.81,0.509
41465,1755606367457,17.91,57.84,1.34,792,778,778,340,897,34.48275862068966,-0.307,0.816,0.513
41495,1755606367486,17.94,57.89,1.29,791,780,780,370,896,33.333333333333336,-0.307,0.812,0.508
41524,1755606367516,17.85,57.84,1.39,789,777,782,426,894,34.48275862068966,-0.305,0.806,0.503
41553,1755606367545,17.86,57.71,1.31,790,771,777,398,894,34.48275862068966,-0.305,0.811,0.508
41583,1755606367574,17.85,57.81,1.33,793,780,779,343,895,33.333333333333336,-0.31,0.813,0.517
41612,1755606367604,17.91,57.91,1.3,790,774,780,371,894,34.48275862068966,-0.308,0.809,0.514
41641,1755606367633,17.91,57.87,1.28,791,776,781,419,891,34.48275862068966,-0.307,0.807,0.506
41671,1755606367663,17.84,57.76,1.3,786,777,773,400,901,33.333333333333336,-0.306,0.809,0.505
41701,1755606367693,17.81,57.72,1.3,790,769,777,362,888,33.333333333333336,-0.307,0.809,0.515
41730,1755606367722,17.84,57.8,1.3,792,775,781,345,896,34.48275862068966,-0.307,0.809,0.516
41760,1755606367751,17.89,57.87,1.27,788,779,780,385,895,33.333333333333336,-0.306,0.807,0.511
41789,1755606367781,17.92,57.84,1.27,791,778,778,414,897,34.48275862068966,-0.308,0.807,0.508
41848,1755606367840,17.92,57.84,1.29,787,772,780,340,894,33.333333333333336,-0.306,0.812,0.513
41877,1755606367869,17.94,57.9,1.27,788,776,779,368,895,34.48275862068966,-0.305,0.812,0.511
41907,1755606367899,17.91,57.83,1.25,793,777,779,396,897,33.333333333333336,-0.306,0.81,0.506
41936,1755606367928,17.84,57.77,1.3,793,779,779,392,894,34.48275862068966,-0.307,0.809,0.508
41966,1755606367958,17.88,57.8,1.25,789,779,779,342,900,33.333333333333336,-0.308,0.813,0.515
41995,1755606367987,17.88,57.83,1.24,792,779,778,365,897,34.48275862068966,-0.307,0.812,0.513
42025,1755606368017,17.85,57.83,1.25,790,774,780,420,897,33.333333333333336,-0.305,0.809,0.508
42054,1755606368046,17.83,57.76,1.24,793,775,779,419,893,34.48275862068966,-0.304,0.809,0.511
42084,1755606368075,17.87,57.77,1.18,790,780,781,363,891,33.333333333333336,-0.306,0.812,0.515
42113,1755606368105,17.89,57.76,1.15,788,779,780,344,893,34.48275862068966,-0.309,0.81,0.511
42142,1755606368134,17.86,57.71,1.17,792,774,780,398,894,34.48275862068966,-0.31,0.808,0.509
42172,1755606368164,17.83,57.76,1.23,793,780,782,408,892,33.333333333333336,-0.31,0.811,0.517
42202,1755606368194,17.9,57.82,1.19,792,774,782,375,893,33.333333333333336,-0.309,0.811,0.514
42231,1755606368223,17.89,57.78,1.21,787,777,779,367,896,34.48275862068966,-0.308,0.807,0.509
42261,1755606368252,17.81,57.72,1.33,791,775,777,376,898,33.333333333333336,-0.305,0.81,0.513
42290,1755606368281,17.82,57.67,1.29,786,775,779,409,895,34.48275862068966,-0.305,0.813,0.517
42319,1755606368311,17.8,57.73,1.31,791,777,783,373,896,34.48275862068966,-0.304,0.811,0.517
42348,1755606368340,17.82,57.75,1.27,792,769,779,356,897,34.48275862068966,-0.301,0.808,0.514
42378,1755606368370,17.78,57.72,1.29,790,773,779,367,891,33.333333333333336,-0.303,0.809,0.513
42407,1755606368399,17.78,57.7,1.29,788,775,778,420,896,34.48275862068966,-0.303,0.808,0.515
42437,1755606368429,17.8,57.72,1.28,791,779,776,404,895,33.333333333333336,-0.303,0.811,0.516
42466,1755606368458,17.79,57.7,1.26,793,769,774,323,894,34.48275862068966,-0.302,0.81,0.515
42496,1755606368487,17.74,57.65,1.28,786,771,781,337,893,33.333333333333336,-0.301,0.807,0.514
42525,1755606368517,17.73,57.66,1.24,791,777,778,402,897,34.48275862068966,-0.302,0.811,0.518
42555,1755606368546,17.75,57.68,1.21,790,780,777,391,894,33.333333333333336,-0.306,0.811,0.518
42584,1755606368576,17.75,57.73,1.26,786,775,780,350,891,34.48275862068966,-0.306,0.807,0.519
42614,1755606368605,17.81,57.78,1.25,791,780,780,336,895,33.333333333333336,-0.305,0.808,0.52
42643,1755606368635,17.81,57.83,1.26,791,780,782,400,892,34.48275862068966,-0.304,0.812,0.514
42672,1755606368664,17.75,57.73,1.22,794,775,784,427,896,34.48275862068966,-0.3,0.809,0.511
42702,1755606368694,17.71,57.61,1.2,793,780,778,405,897,33.333333333333336,-0.301,0.806,0.518
42732,1755606368724,17.78,57.65,1.19,790,776,780,370,896,33.333333333333336,-0.306,0.813,0.521
42761,1755606368753,17.83,57.75,1.16,786,775,781,378,905,34.48275862068966,-0.309,0.812,0.515
42790,1755606368782,17.82,57.72,1.19,790,777,777,410,892,34.48275862068966,-0.308,0.809,0.512
42820,1755606368812,17.77,57.63,1.26,793,775,778,390,891,33.333333333333336,-0.301,0.809,0.516
42849,1755606368841,17.81,57.65,1.25,792,778,776,351,890,34.48275862068966,-0.3,0.815,0.52
42879,1755606368871,17.82,57.7,1.22,794,774,780,369,894,33.333333333333336,-0.299,0.813,0.516
42908,1755606368900,17.82,57.71,1.21,799,775,781,400,900,34.48275862068966,-0.301,0.809,0.513
42938,1755606368930,17.81,57.66,1.2,788,775,774,401,898,33.333333333333336,-0.303,0.811,0.513
42967,1755606368959,17.78,57.67,1.26,789,775,777,346,894,34.48275862068966,-0.304,0.81,0.514
42997,1755606368989,17.82,57.68,1.22,792,774,778,335,898,33.333333333333336,-0.303,0.812,0.515
43027,1755606369019,17.82,57.66,1.2,791,776,776,392,896,33.333333333333336,-0.303,0.812,0.515
43056,1755606369048,17.83,57.64,1.19,790,777,776,402,895,34.48275862068966,-0.3,0.808,0.514
43086,1755606369077,17.83,57.59,1.19,786,774,776,373,891,33.333333333333336,-0.301,0.808,0.515
43115,1755606369107,17.85,57.55,1.14,790,774,776,326,896,34.48275862068966,-0.301,0.809,0.515
43174,1755606369165,17.82,57.62,1.13,791,776,778,413,898,33.333333333333336,-0.303,0.81,0.516
43203,1755606369195,17.82,57.57,1.09,792,776,780,402,893,34.48275862068966,-0.301,0.809,0.515
43233,1755606369224,17.78,57.54,1.11,793,779,780,356,898,33.333333333333336,-0.302,0.808,0.515
43262,1755606369254,17.79,57.52,1.08,790,772,778,348,897,34.48275862068966,-0.302,0.81,0.517
43291,1755606369283,17.8,57.56,1.04,793,775,784,353,898,34.48275862068966,-0.306,0.809,0.516
43321,1755606369313,17.78,57.58,1.1,792,775,778,397,891,33.333333333333336,-0.304,0.807,0.512
43350,1755606369342,17.77,57.54,1.11,788,775,780,358,890,34.48275862068966,-0.302,0.808,0.513
43380,1755606369372,17.75,57.57,1.11,788,780,782,319,894,33.333333333333336,-0.302,0.812,0.515
43439,1755606369431,17.78,57.54,1.03,793,770,780,381,890,33.333333333333336,-0.301,0.807,0.516
43468,1755606369461,17.71,57.59,1.09,792,778,776,369,893,34.48275862068966,-0.303,0.81,0.514
43498,1755606369490,17.7,57.54,1.09,788,770,781,362,890,33.333333333333336,-0.301,0.805,0.518
43528,1755606369520,17.77,57.53,1.02,789,774,778,377,891,33.333333333333336,-0.301,0.811,0.519
43557,1755606369549,17.77,57.47,0.98,792,771,779,419,894,34.48275862068966,-0.304,0.806,0.514
43587,1755606369578,17.7,57.42,1.05,792,780,779,405,895,33.333333333333336,-0.306,0.806,0.514
43616,1755606369608,17.7,57.43,1.07,791,777,781,357,893,34.48275862068966,-0.305,0.807,0.521
43645,1755606369637,17.74,57.54,1.07,788,778,780,371,895,34.48275862068966,-0.302,0.81,0.524
43704,1755606369696,17.78,57.41,0.97,792,771,781,420,896,34.48275862068966,-0.3,0.804,0.514
43734,1755606369725,17.77,57.33,0.97,792,775,780,357,902,33.333333333333336,-0.302,0.805,0.515
43763,1755606369755,17.8,57.28,0.96,793,775,778,356,893,34.48275862068966,-0.307,0.806,0.518
43822,1755606369814,17.77,57.15,0.98,791,778,782,414,894,34.48275862068966,-0.302,0.805,0.516
43852,1755606369843,17.76,57.07,0.96,788,775,781,380,895,33.333333333333336,-0.302,0.808,0.519
43881,1755606369873,17.71,57.11,0.99,790,775,778,301,894,34.48275862068966,-0.301,0.808,0.522
43910,1755606369902,17.72,57.07,0.91,790,774,778,346,898,34.48275862068966,-0.302,0.806,0.52
43969,1755606369962,17.68,57.11,0.96,794,771,776,388,896,34.48275862068966,-0.306,0.804,0.527
43999,1755606369991,17.71,57.13,0.96,787,779,778,359,895,33.333333333333336,-0.307,0.803,0.53
44029,1755606370020,17.75,57.14,0.97,791,779,779,364,894,33.333333333333336,-0.304,0.805,0.526
44058,1755606370050,17.74,57.16,0.99,791,777,779,392,892,34.48275862068966,-0.3,0.803,0.526
44088,1755606370079,17.75,57.1,0.96,786,776,780,397,893,33.333333333333336,-0.3,0.802,0.527
44117,1755606370109,17.76,57.11,0.94,792,774,781,357,890,34.48275862068966,-0.303,0.804,0.526
44147,1755606370138,17.74,57.13,0.96,793,774,779,337,899,33.333333333333336,-0.305,0.805,0.523
44176,1755606370168,17.74,57.16,0.97,792,779,780,386,893,34.48275862068966,-0.304,0.805,0.524
44206,1755606370197,17.74,57.2,1.0,789,769,781,402,896,33.333333333333336,-0.302,0.803,0.528
44235,1755606370227,17.77,57.17,0.97,788,778,779,379,895,34.48275862068966,-0.301,0.806,0.523
44265,1755606370256,17.74,57.04,0.96,791,774,780,347,890,33.333333333333336,-0.301,0.801,0.521
44294,1755606370286,17.68,57.0,1.03,790,779,780,362,890,34.48275862068966,-0.303,0.803,0.525
44324,1755606370316,17.66,56.95,1.07,792,777,777,388,895,33.333333333333336,-0.301,0.805,0.528
44353,1755606370345,17.71,56.98,1.05,787,776,778,405,897,34.48275862068966,-0.301,0.805,0.527
44383,1755606370374,17.7,56.94,1.05,792,780,777,360,884,33.333333333333336,-0.3,0.803,0.525
44412,1755606370404,17.7,56.88,1.06,789,778,778,379,896,34.48275862068966,-0.3,0.802,0.527
44441,1755606370433,17.74,56.95,1.06,793,768,774,409,892,34.48275862068966,-0.302,0.803,0.531
44471,1755606370462,17.81,56.97,1.03,788,778,780,399,891,33.333333333333336,-0.302,0.803,0.529
44500,1755606370492,17.82,56.95,1.04,792,772,779,372,895,34.48275862068966,-0.3,0.803,0.523
44530,1755606370521,17.78,56.93,1.07,793,778,777,347,895,33.333333333333336,-0.299,0.802,0.522
44559,1755606370551,17.72,56.88,1.08,794,770,780,388,893,34.48275862068966,-0.297,0.801,0.525
44588,1755606370580,17.74,56.92,1.04,791,780,781,411,893,34.48275862068966,-0.299,0.804,0.529
44618,1755606370610,17.77,57.01,1.01,790,774,781,383,893,33.333333333333336,-0.299,0.803,0.53
44647,1755606370639,17.77,56.96,0.98,793,778,774,354,908,34.48275862068966,-0.299,0.799,0.527
44677,1755606370668,17.75,56.89,0.96,788,775,778,375,896,33.333333333333336,-0.301,0.801,0.523
44706,1755606370698,17.71,56.93,1.0,788,775,778,425,896,34.48275862068966,-0.304,0.803,0.528
44765,1755606370757,17.77,57.02,1.04,790,768,775,320,898,34.48275862068966,-0.301,0.804,0.525
44794,1755606370786,17.75,56.99,1.0,793,774,777,342,890,34.48275862068966,-0.298,0.804,0.522
44824,1755606370815,17.72,56.85,0.94,791,774,776,400,893,33.333333333333336,-0.297,0.801,0.53
44853,1755606370845,17.74,56.88,0.91,793,775,777,401,891,34.48275862068966,-0.301,0.804,0.534
44882,1755606370874,17.8,56.94,0.86,791,776,778,363,896,34.48275862068966,-0.304,0.803,0.526
44912,1755606370903,17.77,56.81,0.9,788,772,781,357,895,33.333333333333336,-0.305,0.796,0.525
44941,1755606370933,17.65,56.74,1.03,792,775,781,394,893,34.48275862068966,-0.301,0.802,0.527
45000,1755606370992,17.72,56.66,0.93,793,781,776,357,896,33.333333333333336,-0.299,0.802,0.535
45030,1755606371021,17.75,56.65,0.91,789,776,776,339,895,33.333333333333336,-0.3,0.799,0.53
45059,1755606371051,17.75,56.67,0.93,790,777,780,398,891,34.48275862068966,-0.301,0.799,0.53
45089,1755606371081,17.8,56.7,0.9,792,776,780,424,894,33.333333333333336,-0.304,0.802,0.532
45118,1755606371110,17.8,56.75,0.96,793,779,776,374,896,34.48275862068966,-0.305,0.801,0.529
45148,1755606371139,17.78,56.73,1.01,788,775,776,311,895,33.333333333333336,-0.301,0.798,0.525
45177,1755606371169,17.76,56.71,1.0,793,777,775,366,890,34.48275862068966,-0.299,0.802,0.53
45206,1755606371198,17.76,56.76,1.0,793,771,777,416,893,34.48275862068966,-0.297,0.8,0.536
45236,1755606371227,17.82,56.81,0.95,794,777,779,399,891,33.333333333333336,-0.297,0.801,0.53
45265,1755606371257,17.82,56.81,0.92,791,773,774,311,893,34.48275862068966,-0.3,0.801,0.525
45294,1755606371286,17.8,56.82,0.94,792,774,774,356,896,34.48275862068966,-0.301,0.803,0.527
45324,1755606371315,17.83,56.85,0.87,791,781,783,395,896,33.333333333333336,-0.3,0.804,0.529
45353,1755606371345,17.85,56.85,0.83,789,777,773,388,893,34.48275862068966,-0.3,0.804,0.53
45382,1755606371374,17.81,56.91,0.86,788,778,777,347,900,34.48275862068966,-0.297,0.803,0.526
45412,1755606371404,17.78,56.93,0.81,792,771,775,345,892,33.333333333333336,-0.298,0.804,0.524
45442,1755606371434,17.77,56.86,0.75,791,777,777,387,889,33.333333333333336,-0.302,0.803,0.528
45462,1755606371454,17.8,56.85,0.71,788,774,776,339,893,50.0,-0.306,0.802,0.529
45491,1755606371483,17.79,56.91,0.75,792,778,781,397,892,34.48275862068966,-0.311,0.801,0.531
45521,1755606371513,17.8,56.93,0.8,791,779,775,414,898,33.333333333333336,-0.307,0.802,0.529
45550,1755606371542,17.82,56.91,0.77,789,780,780,371,894,34.48275862068966,-0.3,0.801,0.524
45580,1755606371572,17.79,56.86,0.73,795,780,777,356,892,33.333333333333336,-0.3,0.803,0.525
45609,1755606371601,17.76,56.84,0.72,792,768,774,400,891,34.48275862068966,-0.302,0.803,0.525
45639,1755606371630,17.74,56.81,0.69,794,769,777,418,895,33.333333333333336,-0.304,0.801,0.526
45668,1755606371660,17.78,56.8,0.65,790,771,775,393,898,34.48275862068966,-0.308,0.802,0.53
45697,1755606371689,17.74,56.91,0.76,785,780,780,364,888,34.48275862068966,-0.308,0.801,0.53
45727,1755606371718,17.77,56.88,0.73,793,770,782,381,891,33.333333333333336,-0.303,0.8,0.524
45756,1755606371748,17.76,56.82,0.71,795,769,780,401,901,34.48275862068966,-0.302,0.802,0.523
45785,1755606371777,17.73,56.81,0.7,793,771,775,400,893,34.48275862068966,-0.301,0.803,0.527
45815,1755606371807,17.77,56.83,0.62,793,779,779,359,893,33.333333333333336,-0.303,0.802,0.53
45844,1755606371836,17.76,56.89,0.67,790,770,778,369,897,34.48275862068966,-0.305,0.804,0.528
45874,1755606371865,17.68,56.81,0.66,789,779,782,422,894,33.333333333333336,-0.299,0.8,0.519
45903,1755606371895,17.66,56.62,0.56,793,772,778,410,894,34.48275862068966,-0.301,0.799,0.531
45932,1755606371924,17.65,56.66,0.58,791,775,779,366,894,34.48275862068966,-0.304,0.802,0.536
45962,1755606371953,17.76,56.73,0.51,789,776,778,355,891,33.333333333333336,-0.306,0.801,0.531
46020,1755606372012,17.69,56.62,0.59,790,772,775,405,892,34.48275862068966,-0.301,0.796,0.528
46050,1755606372042,17.74,56.62,0.52,793,780,779,352,896,33.333333333333336,-0.302,0.803,0.535
46079,1755606372071,17.76,56.79,0.55,792,776,781,350,897,34.48275862068966,-0.304,0.803,0.538
46138,1755606372130,17.78,56.63,0.54,792,776,777,386,897,34.48275862068966,-0.306,0.797,0.521
46167,1755606372160,17.7,56.63,0.62,792,777,780,363,900,34.48275862068966,-0.303,0.8,0.531
46197,1755606372189,17.8,56.7,0.54,794,768,780,346,890,33.333333333333336,-0.304,0.803,0.54
46226,1755606372218,17.88,56.83,0.51,787,776,781,382,892,34.48275862068966,-0.303,0.801,0.533
46256,1755606372248,17.89,56.76,0.49,790,779,779,408,896,33.333333333333336,-0.302,0.797,0.526
46285,1755606372277,17.88,56.67,0.47,792,780,774,388,895,34.48275862068966,-0.302,0.798,0.523
46315,1755606372306,17.87,56.66,0.43,792,781,780,359,893,33.333333333333336,-0.301,0.802,0.531
46344,1755606372336,17.93,56.77,0.4,791,776,778,357,898,34.48275862068966,-0.305,0.804,0.536
46374,1755606372365,17.92,56.83,0.44,795,771,773,403,890,33.333333333333336,-0.303,0.8,0.526
46403,1755606372395,17.88,56.77,0.44,790,780,775,385,891,34.48275862068966,-0.301,0.798,0.522
46432,1755606372424,17.84,56.73,0.44,792,770,779,348,896,34.48275862068966,-0.304,0.8,0.526
46462,1755606372453,17.86,56.8,0.49,789,775,778,348,893,33.333333333333336,-0.307,0.802,0.53
46491,1755606372483,18.02,56.91,0.42,792,774,777,397,890,34.48275862068966,-0.308,0.803,0.527
46520,1755606372512,18.02,56.97,0.46,791,777,779,398,895,34.48275862068966,-0.305,0.8,0.517
46550,1755606372541,17.87,56.93,0.56,793,779,779,363,895,33.333333333333336,-0.302,0.8,0.517
46579,1755606372571,17.88,56.85,0.48,792,775,781,311,893,34.48275862068966,-0.305,0.805,0.526
46609,1755606372600,17.86,56.9,0.51,788,768,775,381,892,33.333333333333336,-0.307,0.802,0.526
46638,1755606372630,17.84,56.88,0.53,793,777,773,410,894,34.48275862068966,-0.307,0.799,0.523
