timestamp_ms,recv_timestamp_ms,pitch,roll,yaw,flex1,flex2,flex3,flex4,flex5,sampling_hz,accel_x,accel_y,accel_z
223367,1755604270022,21.89,87.28,-49.45,836,924,889,386,924,33.333333333333336,-0.365,0.933,0.052
223396,1755604270024,21.89,87.29,-49.45,839,923,880,348,921,34.48275862068966,-0.366,0.934,0.052
223425,1755604270026,21.88,87.3,-49.47,835,919,900,352,923,34.48275862068966,-0.367,0.932,0.051
223455,1755604270028,21.88,87.3,-49.5,843,927,893,401,925,33.333333333333336,-0.364,0.932,0.051
223484,1755604270030,21.87,87.29,-49.51,843,923,876,379,927,34.48275862068966,-0.364,0.934,0.051
223514,1755604270032,21.86,87.28,-49.52,838,927,896,333,916,33.333333333333336,-0.365,0.932,0.053
223544,1755604270034,21.87,87.3,-49.52,844,922,891,355,923,33.333333333333336,-0.366,0.933,0.053
223573,1755604270036,21.87,87.32,-49.52,843,925,889,376,914,34.48275862068966,-0.365,0.934,0.051
223594,1755604270039,21.87,87.31,-49.52,843,921,896,348,922,47.61904761904762,-0.363,0.933,0.05
223623,1755604270041,21.85,87.31,-49.57,842,922,889,391,916,34.48275862068966,-0.364,0.933,0.049
223653,1755604270043,21.85,87.31,-49.58,844,916,895,415,920,33.333333333333336,-0.365,0.933,0.051
223682,1755604270046,21.86,87.3,-49.58,843,922,895,369,920,34.48275862068966,-0.366,0.933,0.052
223712,1755604270047,21.87,87.32,-49.6,845,927,887,347,924,33.333333333333336,-0.367,0.933,0.05
223741,1755604270049,21.87,87.33,-49.6,843,927,899,376,919,34.48275862068966,-0.367,0.933,0.05
223771,1755604270051,21.85,87.34,-49.63,838,929,901,390,922,33.333333333333336,-0.364,0.932,0.051
223800,1755604270054,21.84,87.34,-49.64,834,924,900,351,923,34.48275862068966,-0.363,0.934,0.052
223830,1755604270055,21.84,87.34,-49.64,842,922,890,333,918,33.333333333333336,-0.368,0.933,0.051
223859,1755604270058,21.86,87.36,-49.66,845,907,893,343,925,34.48275862068966,-0.371,0.933,0.05
223889,1755604270059,21.87,87.36,-49.67,843,921,894,390,924,33.333333333333336,-0.368,0.933,0.05
223918,1755604270061,21.87,87.36,-49.7,841,934,895,381,925,34.48275862068966,-0.365,0.934,0.051
223938,1755604270064,21.87,87.35,-49.71,844,916,893,371,931,50.0,-0.365,0.932,0.052
223968,1755604270065,21.88,87.34,-49.77,840,920,890,387,917,33.333333333333336,-0.369,0.934,0.05
223997,1755604270067,21.89,87.36,-49.76,847,942,874,354,925,34.48275862068966,-0.369,0.935,0.05
224027,1755604270070,21.9,87.36,-49.74,842,929,890,332,925,33.333333333333336,-0.365,0.935,0.051
224056,1755604270072,21.9,87.34,-49.75,844,909,889,378,921,34.48275862068966,-0.363,0.933,0.05
224115,1755604270075,21.89,87.32,-49.78,840,923,890,360,920,34.48275862068966,-0.368,0.934,0.048
224144,1755604270077,21.89,87.32,-49.8,847,922,888,354,921,34.48275862068966,-0.366,0.933,0.051
224174,1755604270080,21.88,87.31,-49.82,840,910,877,390,926,33.333333333333336,-0.366,0.933,0.052
224203,1755604270082,21.88,87.31,-49.84,837,920,892,364,924,34.48275862068966,-0.369,0.934,0.05
224233,1755604270088,21.88,87.32,-49.84,842,920,893,360,933,33.333333333333336,-0.369,0.935,0.05
224262,1755604270117,21.89,87.33,-49.84,840,911,899,347,915,34.48275862068966,-0.368,0.934,0.051
224292,1755604270147,21.9,87.33,-49.85,841,923,888,377,917,33.333333333333336,-0.369,0.934,0.051
224321,1755604270176,21.9,87.33,-49.86,841,917,900,398,921,34.48275862068966,-0.368,0.934,0.05
224351,1755604270205,21.89,87.34,-49.87,841,924,891,396,924,33.333333333333336,-0.368,0.934,0.051
224380,1755604270235,21.89,87.35,-49.9,838,922,895,362,919,34.48275862068966,-0.363,0.934,0.053
224409,1755604270265,21.88,87.32,-49.9,839,912,892,367,926,34.48275862068966,-0.364,0.934,0.051
224439,1755604270294,21.87,87.3,-49.92,838,917,889,409,923,33.333333333333336,-0.369,0.933,0.049
224469,1755604270324,21.88,87.31,-49.95,843,923,900,406,920,33.333333333333336,-0.369,0.934,0.051
224498,1755604270353,21.89,87.32,-49.92,842,922,884,368,915,34.48275862068966,-0.37,0.934,0.053
224528,1755604270383,21.89,87.32,-49.91,839,919,878,357,917,33.333333333333336,-0.368,0.932,0.055
224557,1755604270413,21.88,87.33,-49.94,841,928,892,388,926,34.48275862068966,-0.365,0.933,0.053
224587,1755604270442,21.88,87.33,-49.95,842,921,889,400,922,33.333333333333336,-0.365,0.933,0.05
224617,1755604270472,21.86,87.31,-50.0,840,927,886,398,914,33.333333333333336,-0.366,0.932,0.049
224646,1755604270502,21.85,87.29,-50.03,843,921,892,351,924,34.48275862068966,-0.367,0.934,0.052
224667,1755604270522,21.85,87.29,-50.02,842,922,883,402,918,47.61904761904762,-0.368,0.933,0.055
224696,1755604270551,21.88,87.3,-50.03,845,930,888,372,927,34.48275862068966,-0.37,0.932,0.056
224726,1755604270581,21.89,87.32,-50.04,839,916,886,380,925,33.333333333333336,-0.369,0.932,0.053
224755,1755604270610,21.87,87.32,-50.07,841,934,888,409,921,34.48275862068966,-0.368,0.932,0.052
224785,1755604270640,21.88,87.3,-50.08,840,928,899,417,918,33.333333333333336,-0.37,0.932,0.052
224814,1755604270669,21.87,87.31,-50.07,843,920,892,371,913,34.48275862068966,-0.371,0.933,0.055
224844,1755604270699,21.89,87.34,-50.07,838,928,889,368,919,33.333333333333336,-0.371,0.933,0.057
224873,1755604270728,21.91,87.37,-50.04,844,931,892,381,919,34.48275862068966,-0.369,0.933,0.057
224903,1755604270758,21.93,87.4,-50.02,848,915,894,387,922,33.333333333333336,-0.369,0.933,0.052
224932,1755604270787,21.94,87.41,-50.04,840,919,889,357,925,34.48275862068966,-0.368,0.932,0.049
224962,1755604270817,21.93,87.4,-50.07,844,917,890,355,922,33.333333333333336,-0.365,0.931,0.05
224991,1755604270846,21.93,87.39,-50.09,848,921,887,373,922,34.48275862068966,-0.364,0.934,0.052
225021,1755604270876,21.94,87.39,-50.09,838,921,894,407,930,33.333333333333336,-0.366,0.933,0.052
225050,1755604270905,21.97,87.39,-50.11,842,916,892,390,924,34.48275862068966,-0.368,0.931,0.051
225080,1755604270935,21.96,87.39,-50.15,836,923,897,342,924,33.333333333333336,-0.364,0.933,0.051
225109,1755604270964,21.95,87.36,-50.16,841,919,895,360,922,34.48275862068966,-0.362,0.932,0.052
225139,1755604270994,21.95,87.32,-50.19,842,922,884,413,925,33.333333333333336,-0.366,0.931,0.053
225168,1755604271024,21.96,87.33,-50.2,841,922,893,396,925,34.48275862068966,-0.368,0.934,0.05
225198,1755604271053,21.96,87.32,-50.2,841,921,899,350,926,33.333333333333336,-0.367,0.932,0.048
225227,1755604271082,21.96,87.29,-50.22,842,917,894,353,917,34.48275862068966,-0.368,0.931,0.05
225257,1755604271112,21.95,87.27,-50.25,837,916,887,389,918,33.333333333333336,-0.369,0.933,0.051
225286,1755604271141,21.96,87.29,-50.25,840,928,887,406,919,34.48275862068966,-0.371,0.934,0.054
225316,1755604271171,21.97,87.31,-50.24,842,931,889,388,917,33.333333333333336,-0.369,0.933,0.054
225345,1755604271201,21.96,87.3,-50.25,847,925,893,361,918,34.48275862068966,-0.371,0.932,0.053
225375,1755604271230,21.96,87.34,-50.25,842,914,908,373,918,33.333333333333336,-0.371,0.934,0.053
225404,1755604271259,21.99,87.36,-50.26,837,921,881,406,923,34.48275862068966,-0.367,0.932,0.053
225434,1755604271289,22.0,87.37,-50.26,839,921,904,406,919,33.333333333333336,-0.366,0.933,0.053
225464,1755604271319,21.99,87.38,-50.27,836,913,900,356,917,33.333333333333336,-0.368,0.933,0.052
225493,1755604271348,22.0,87.39,-50.27,845,922,890,365,921,34.48275862068966,-0.37,0.933,0.051
225523,1755604271378,22.04,87.4,-50.29,843,923,891,406,914,33.333333333333336,-0.368,0.932,0.053
225552,1755604271408,22.03,87.41,-50.3,840,927,886,392,920,34.48275862068966,-0.367,0.933,0.053
225582,1755604271437,22.03,87.41,-50.3,847,923,893,369,919,33.333333333333336,-0.367,0.933,0.051
225611,1755604271466,22.02,87.39,-50.34,842,919,884,356,922,34.48275862068966,-0.366,0.932,0.05
225641,1755604271496,22.01,87.37,-50.39,843,918,872,370,919,33.333333333333336,-0.363,0.932,0.05
225670,1755604271525,21.99,87.33,-50.43,845,928,888,413,923,34.48275862068966,-0.365,0.932,0.05
225700,1755604271555,22.0,87.31,-50.48,841,927,898,390,922,33.333333333333336,-0.368,0.932,0.051
225729,1755604271584,22.02,87.32,-50.5,838,920,888,352,924,34.48275862068966,-0.371,0.934,0.052
225759,1755604271614,22.01,87.32,-50.5,843,919,898,383,921,33.333333333333336,-0.369,0.933,0.054
225788,1755604271644,22.02,87.31,-50.5,840,919,883,404,919,34.48275862068966,-0.368,0.932,0.052
225809,1755604271664,22.02,87.31,-50.52,836,928,898,366,916,47.61904761904762,-0.369,0.931,0.05
225838,1755604271694,22.0,87.29,-50.54,843,942,887,400,922,34.48275862068966,-0.371,0.932,0.049
225868,1755604271724,21.98,87.29,-50.55,842,921,892,403,914,33.333333333333336,-0.371,0.93,0.05
225898,1755604271753,21.97,87.3,-50.57,845,917,882,329,922,33.333333333333336,-0.372,0.931,0.052
225927,1755604271783,21.97,87.32,-50.58,845,916,892,333,926,34.48275862068966,-0.372,0.933,0.054
225957,1755604271812,21.98,87.33,-50.56,839,913,883,377,927,33.333333333333336,-0.372,0.932,0.056
225986,1755604271841,21.99,87.35,-50.55,840,923,887,393,921,34.48275862068966,-0.371,0.932,0.055
226016,1755604271871,22.01,87.34,-50.56,843,916,886,375,920,33.333333333333336,-0.369,0.932,0.053
226045,1755604271900,22.01,87.35,-50.57,836,928,898,360,919,34.48275862068966,-0.368,0.932,0.053
226075,1755604271930,22.03,87.34,-50.58,843,927,893,361,925,33.333333333333336,-0.368,0.932,0.051
226104,1755604271959,22.04,87.33,-50.61,835,926,887,390,920,34.48275862068966,-0.37,0.932,0.051
226133,1755604271989,22.06,87.33,-50.62,842,927,896,386,926,34.48275862068966,-0.371,0.932,0.052
226163,1755604272018,22.06,87.32,-50.64,843,922,889,306,917,33.333333333333336,-0.368,0.932,0.053
226193,1755604272048,22.07,87.3,-50.65,841,927,882,340,916,33.333333333333336,-0.367,0.932,0.053
226222,1755604272077,22.06,87.27,-50.67,839,926,902,386,915,34.48275862068966,-0.367,0.931,0.054
226251,1755604272107,22.07,87.27,-50.67,835,927,888,390,937,34.48275862068966,-0.37,0.932,0.052
226281,1755604272136,22.07,87.26,-50.69,839,931,878,374,906,33.333333333333336,-0.372,0.932,0.051
226310,1755604272166,22.07,87.26,-50.71,839,924,891,362,919,34.48275862068966,-0.37,0.932,0.053
226340,1755604272195,22.08,87.25,-50.71,837,928,892,390,919,33.333333333333336,-0.37,0.931,0.052
226369,1755604272225,22.07,87.23,-50.75,840,914,891,368,924,34.48275862068966,-0.373,0.93,0.05
226399,1755604272254,22.06,87.23,-50.78,844,919,890,358,924,33.333333333333336,-0.374,0.931,0.053
226429,1755604272283,22.07,87.26,-50.77,846,926,887,335,920,33.333333333333336,-0.373,0.931,0.053
226458,1755604272313,22.07,87.28,-50.77,844,912,876,380,918,34.48275862068966,-0.373,0.93,0.052
226487,1755604272342,22.08,87.31,-50.79,842,920,894,403,914,34.48275862068966,-0.369,0.93,0.05
226517,1755604272371,22.07,87.31,-50.79,843,923,902,369,921,33.333333333333336,-0.369,0.931,0.049
226546,1755604272401,22.05,87.29,-50.83,841,917,897,328,921,34.48275862068966,-0.369,0.931,0.052
226575,1755604272431,22.05,87.28,-50.84,838,923,903,360,918,34.48275862068966,-0.369,0.931,0.057
226605,1755604272460,22.06,87.3,-50.84,840,922,884,407,931,33.333333333333336,-0.371,0.933,0.055
226634,1755604272490,22.06,87.3,-50.85,844,921,881,410,920,34.48275862068966,-0.369,0.932,0.053
226664,1755604272519,22.08,87.28,-50.85,838,921,892,362,921,33.333333333333336,-0.367,0.932,0.053
226693,1755604272548,22.09,87.26,-50.83,844,923,888,354,922,34.48275862068966,-0.369,0.931,0.052
226723,1755604272578,22.12,87.25,-50.83,840,920,894,395,920,33.333333333333336,-0.372,0.931,0.05
226752,1755604272608,22.14,87.25,-50.85,833,916,894,415,924,34.48275862068966,-0.373,0.93,0.051
226782,1755604272638,22.14,87.29,-50.89,845,916,881,379,921,33.333333333333336,-0.366,0.931,0.05
226802,1755604272657,22.14,87.28,-50.91,839,921,901,406,919,50.0,-0.363,0.929,0.05
226832,1755604272687,22.1,87.23,-50.95,840,912,887,373,914,33.333333333333336,-0.368,0.93,0.051
226861,1755604272716,22.09,87.23,-50.98,843,915,892,346,926,34.48275862068966,-0.37,0.931,0.052
226890,1755604272745,22.13,87.24,-51.02,840,919,886,384,914,34.48275862068966,-0.372,0.931,0.052
226920,1755604272775,22.14,87.22,-51.06,847,921,881,404,917,33.333333333333336,-0.374,0.93,0.052
226949,1755604272804,22.12,87.21,-51.08,838,920,890,377,928,34.48275862068966,-0.374,0.931,0.052
226978,1755604272834,22.13,87.21,-51.09,836,926,898,357,917,34.48275862068966,-0.373,0.931,0.053
227008,1755604272863,22.14,87.22,-51.11,841,923,886,366,924,33.333333333333336,-0.374,0.931,0.054
227037,1755604272892,22.14,87.21,-51.12,836,929,884,403,920,34.48275862068966,-0.376,0.931,0.055
227067,1755604272922,22.17,87.22,-51.12,840,927,891,393,918,33.333333333333336,-0.375,0.931,0.054
227096,1755604272951,22.21,87.22,-51.14,842,920,907,339,928,34.48275862068966,-0.374,0.931,0.054
227125,1755604272981,22.22,87.21,-51.16,839,936,878,343,926,34.48275862068966,-0.372,0.931,0.052
227155,1755604273010,22.23,87.17,-51.18,838,917,895,398,936,33.333333333333336,-0.372,0.93,0.05
227185,1755604273040,22.24,87.14,-51.22,840,923,888,416,927,33.333333333333336,-0.373,0.93,0.053
227214,1755604273070,22.26,87.12,-51.24,837,921,891,369,923,34.48275862068966,-0.373,0.93,0.056
227244,1755604273099,22.28,87.1,-51.25,842,923,895,356,920,33.333333333333336,-0.376,0.93,0.055
227274,1755604273129,22.29,87.12,-51.28,843,912,891,370,920,33.333333333333336,-0.377,0.931,0.056
227303,1755604273158,22.3,87.13,-51.28,835,923,887,398,924,34.48275862068966,-0.376,0.931,0.056
227332,1755604273187,22.31,87.13,-51.27,842,928,895,368,918,34.48275862068966,-0.375,0.93,0.054
227362,1755604273217,22.32,87.13,-51.3,843,923,891,340,924,33.333333333333336,-0.373,0.93,0.053
227391,1755604273246,22.33,87.14,-51.3,842,917,887,363,925,34.48275862068966,-0.375,0.93,0.054
227421,1755604273276,22.32,87.12,-51.3,838,924,890,397,916,33.333333333333336,-0.376,0.93,0.053
227450,1755604273305,22.33,87.13,-51.32,837,914,898,391,918,34.48275862068966,-0.375,0.93,0.055
227480,1755604273335,22.35,87.15,-51.32,843,923,884,343,918,33.333333333333336,-0.374,0.929,0.055
227509,1755604273364,22.34,87.14,-51.33,841,911,888,360,919,34.48275862068966,-0.374,0.929,0.053
227538,1755604273394,22.33,87.13,-51.36,840,915,892,418,923,34.48275862068966,-0.374,0.929,0.053
227568,1755604273423,22.33,87.12,-51.38,840,921,889,404,923,33.333333333333336,-0.374,0.93,0.054
227598,1755604273453,22.33,87.12,-51.38,841,926,910,353,923,33.333333333333336,-0.375,0.929,0.055
227627,1755604273482,22.33,87.11,-51.4,839,922,886,354,921,34.48275862068966,-0.376,0.93,0.055
227657,1755604273512,22.35,87.13,-51.4,840,923,884,400,922,33.333333333333336,-0.377,0.93,0.056
227686,1755604273541,22.35,87.14,-51.4,851,922,897,405,914,34.48275862068966,-0.375,0.929,0.055
227715,1755604273570,22.34,87.13,-51.41,843,918,896,372,922,34.48275862068966,-0.374,0.929,0.055
227745,1755604273600,22.34,87.13,-51.43,839,926,881,346,916,33.333333333333336,-0.374,0.93,0.055
227775,1755604273630,22.36,87.13,-51.44,838,930,902,369,924,33.333333333333336,-0.376,0.929,0.056
227804,1755604273659,22.36,87.14,-51.43,844,922,895,393,916,34.48275862068966,-0.377,0.929,0.055
227834,1755604273689,22.36,87.14,-51.44,837,925,888,402,921,33.333333333333336,-0.373,0.93,0.055
227864,1755604273719,22.36,87.13,-51.48,839,927,892,354,920,33.333333333333336,-0.373,0.929,0.056
227893,1755604273748,22.35,87.13,-51.49,842,923,892,349,924,34.48275862068966,-0.377,0.93,0.055
227922,1755604273777,22.34,87.15,-51.5,838,911,886,400,916,34.48275862068966,-0.377,0.93,0.055
227952,1755604273807,22.38,87.17,-51.52,839,920,886,404,916,33.333333333333336,-0.376,0.93,0.057
227981,1755604273837,22.39,87.18,-51.5,843,923,889,369,918,34.48275862068966,-0.374,0.931,0.057
228011,1755604273866,22.4,87.19,-51.52,841,926,894,347,913,33.333333333333336,-0.374,0.93,0.053
228041,1755604273896,22.41,87.19,-51.56,845,917,892,374,923,33.333333333333336,-0.374,0.93,0.055
228070,1755604273925,22.42,87.17,-51.55,838,926,886,404,919,34.48275862068966,-0.375,0.931,0.055
228099,1755604273955,22.44,87.17,-51.55,840,918,888,383,914,34.48275862068966,-0.377,0.93,0.054
228129,1755604273984,22.45,87.18,-51.57,842,922,879,353,928,33.333333333333336,-0.375,0.93,0.054
228158,1755604274013,22.45,87.18,-51.59,833,913,897,358,926,34.48275862068966,-0.374,0.93,0.054
228188,1755604274043,22.45,87.17,-51.62,838,920,884,415,923,33.333333333333336,-0.375,0.929,0.054
228217,1755604274072,22.45,87.17,-51.63,842,918,893,397,925,34.48275862068966,-0.376,0.93,0.053
228246,1755604274102,22.45,87.19,-51.63,836,925,885,336,923,34.48275862068966,-0.376,0.93,0.055
228276,1755604274132,22.46,87.2,-51.62,843,921,901,350,922,33.333333333333336,-0.376,0.929,0.055
228306,1755604274161,22.46,87.2,-51.64,842,919,893,393,925,33.333333333333336,-0.374,0.929,0.053
228336,1755604274191,22.45,87.2,-51.65,840,924,895,407,919,33.333333333333336,-0.374,0.929,0.052
228365,1755604274220,22.44,87.2,-51.68,845,928,884,389,920,34.48275862068966,-0.375,0.929,0.053
228395,1755604274250,22.45,87.2,-51.68,840,920,886,361,930,33.333333333333336,-0.376,0.93,0.054
228415,1755604274270,22.45,87.21,-51.68,841,931,893,351,921,50.0,-0.376,0.929,0.053
228444,1755604274299,22.45,87.21,-51.69,841,916,894,348,921,34.48275862068966,-0.375,0.929,0.052
228474,1755604274329,22.45,87.21,-51.72,840,924,891,378,919,33.333333333333336,-0.375,0.929,0.053
228503,1755604274358,22.45,87.2,-51.74,838,925,888,392,911,34.48275862068966,-0.376,0.929,0.054
228533,1755604274388,22.46,87.22,-51.74,837,926,875,371,922,33.333333333333336,-0.377,0.93,0.054
228562,1755604274417,22.46,87.22,-51.75,837,921,892,340,926,34.48275862068966,-0.375,0.929,0.053
228591,1755604274447,22.46,87.21,-51.77,839,919,894,360,918,34.48275862068966,-0.374,0.929,0.053
228621,1755604274476,22.46,87.21,-51.8,843,930,885,363,923,33.333333333333336,-0.376,0.93,0.054
228650,1755604274506,22.47,87.21,-51.79,841,921,891,385,925,34.48275862068966,-0.379,0.931,0.053
228680,1755604274535,22.48,87.22,-51.8,835,926,889,310,911,33.333333333333336,-0.377,0.93,0.053
228710,1755604274565,22.49,87.23,-51.81,840,915,899,338,927,33.333333333333336,-0.374,0.93,0.054
228739,1755604274594,22.49,87.22,-51.81,843,920,882,395,924,34.48275862068966,-0.376,0.931,0.053
228768,1755604274624,22.5,87.23,-51.82,840,924,882,394,922,34.48275862068966,-0.377,0.93,0.053
228798,1755604274653,22.52,87.23,-51.84,841,925,897,368,923,33.333333333333336,-0.375,0.93,0.053
228827,1755604274683,22.52,87.22,-51.86,840,918,889,352,926,34.48275862068966,-0.374,0.929,0.053
228857,1755604274712,22.52,87.21,-51.88,834,914,901,388,929,33.333333333333336,-0.375,0.93,0.052
228887,1755604274742,22.53,87.2,-51.89,840,918,887,417,919,33.333333333333336,-0.377,0.929,0.053
228916,1755604274771,22.55,87.21,-51.91,844,914,881,391,923,34.48275862068966,-0.377,0.93,0.053
228945,1755604274801,22.55,87.67,-51.93,836,918,897,360,924,34.48275862068966,-0.376,0.929,0.054
228975,1755604274830,22.56,87.65,-51.95,839,924,891,364,920,33.333333333333336,-0.375,0.93,0.053
229004,1755604274859,22.56,87.65,-51.97,836,922,891,410,924,34.48275862068966,-0.376,0.929,0.053
229034,1755604274889,22.57,87.63,-51.99,842,914,901,395,923,33.333333333333336,-0.377,0.929,0.052
229063,1755604274918,22.57,87.63,-52.01,841,921,900,360,921,34.48275862068966,-0.376,0.929,0.053
229093,1755604274948,22.58,87.62,-52.04,840,927,892,366,924,33.333333333333336,-0.375,0.929,0.054
229122,1755604274977,22.59,87.59,-52.11,842,915,897,401,921,34.48275862068966,-0.376,0.927,0.053
229152,1755604275008,22.58,87.57,-52.13,847,922,891,391,919,33.333333333333336,-0.378,0.929,0.052
229172,1755604275027,22.58,87.56,-52.14,842,915,896,376,929,50.0,-0.38,0.929,0.053
229201,1755604275056,22.59,87.55,-52.14,841,920,897,378,922,34.48275862068966,-0.38,0.929,0.054
229231,1755604275086,22.59,87.55,-52.14,846,926,885,352,921,33.333333333333336,-0.379,0.929,0.054
229260,1755604275115,22.58,87.54,-52.12,836,921,895,333,923,34.48275862068966,-0.378,0.929,0.054
229290,1755604275145,22.59,87.53,-52.13,839,914,890,372,921,33.333333333333336,-0.377,0.928,0.052
229319,1755604275174,22.59,87.51,-52.16,837,924,893,390,922,34.48275862068966,-0.376,0.927,0.05
229349,1755604275204,22.6,87.46,-52.18,838,928,896,361,927,33.333333333333336,-0.378,0.928,0.052
229378,1755604275234,22.6,87.46,-52.17,840,926,883,348,921,34.48275862068966,-0.379,0.927,0.054
229398,1755604275253,22.6,87.45,-52.18,839,920,888,392,926,50.0,-0.38,0.924,0.056
229428,1755604275283,22.61,87.45,-52.18,844,927,884,364,922,33.333333333333336,-0.381,0.928,0.055
229457,1755604275313,22.61,87.46,-52.15,841,937,901,373,921,34.48275862068966,-0.38,0.928,0.055
229487,1755604275342,22.62,87.46,-52.16,847,925,896,402,919,33.333333333333336,-0.378,0.927,0.055
229517,1755604275372,22.62,87.45,-52.17,841,919,883,380,915,33.333333333333336,-0.378,0.928,0.054
229546,1755604275402,22.61,87.43,-52.16,842,915,897,355,922,34.48275862068966,-0.378,0.929,0.056
229576,1755604275431,22.63,87.45,-52.15,841,922,884,363,925,33.333333333333336,-0.378,0.93,0.058
229606,1755604275461,22.63,87.46,-52.11,840,918,887,404,920,33.333333333333336,-0.376,0.93,0.055
229635,1755604275490,22.64,87.44,-52.12,841,917,896,405,921,34.48275862068966,-0.376,0.928,0.052
229665,1755604275520,22.64,87.44,-52.17,842,927,884,354,924,33.333333333333336,-0.376,0.927,0.052
229694,1755604275549,22.64,87.42,-52.18,841,925,895,346,920,34.48275862068966,-0.376,0.929,0.051
229723,1755604275579,22.64,87.43,-52.2,844,921,892,376,921,34.48275862068966,-0.377,0.929,0.053
229753,1755604275608,22.64,87.44,-52.22,845,934,889,395,926,33.333333333333336,-0.377,0.928,0.054
229782,1755604275638,22.63,87.44,-52.22,838,937,901,372,915,34.48275862068966,-0.377,0.93,0.053
229812,1755604275667,22.64,87.44,-52.22,835,928,890,347,925,33.333333333333336,-0.377,0.928,0.054
229841,1755604275696,22.63,87.45,-52.23,838,926,886,352,921,34.48275862068966,-0.376,0.929,0.053
229871,1755604275726,22.61,87.45,-52.24,840,927,889,402,921,33.333333333333336,-0.376,0.928,0.052
229900,1755604275755,22.6,87.45,-52.26,841,920,897,395,919,34.48275862068966,-0.375,0.929,0.053
229930,1755604275785,22.6,87.43,-52.27,840,925,893,341,919,33.333333333333336,-0.376,0.929,0.052
229959,1755604275814,22.6,87.43,-52.28,839,922,892,349,917,34.48275862068966,-0.378,0.93,0.051
229989,1755604275844,22.62,87.43,-52.28,840,929,892,406,920,33.333333333333336,-0.378,0.929,0.054
230018,1755604275873,22.65,87.43,-52.27,850,921,894,412,919,34.48275862068966,-0.378,0.929,0.054
230047,1755604275903,22.66,87.43,-52.28,844,917,893,372,926,34.48275862068966,-0.377,0.929,0.054
230077,1755604275932,22.66,87.45,-52.28,841,925,893,357,917,33.333333333333336,-0.377,0.929,0.053
230106,1755604275962,22.68,87.45,-52.28,834,926,890,395,922,34.48275862068966,-0.377,0.929,0.051
230136,1755604275991,22.69,87.44,-52.29,838,925,890,394,917,33.333333333333336,-0.376,0.929,0.052
230165,1755604276021,22.69,87.45,-52.3,839,929,884,376,930,34.48275862068966,-0.377,0.929,0.053
230224,1755604276079,22.72,87.46,-52.31,843,920,889,359,921,34.48275862068966,-0.378,0.929,0.052
230254,1755604276109,22.72,87.47,-52.31,843,926,883,411,917,33.333333333333336,-0.376,0.93,0.051
230283,1755604276138,22.73,87.46,-52.32,841,914,892,362,918,34.48275862068966,-0.373,0.929,0.051
230313,1755604276168,22.74,87.45,-52.34,845,925,897,322,923,33.333333333333336,-0.379,0.93,0.052
230342,1755604276197,22.74,87.43,-52.34,842,914,902,336,923,34.48275862068966,-0.38,0.929,0.051
230372,1755604276227,22.75,87.42,-52.36,842,921,876,391,928,33.333333333333336,-0.381,0.929,0.05
230401,1755604276256,22.75,87.42,-52.37,838,925,890,412,919,34.48275862068966,-0.377,0.929,0.05
230430,1755604276285,22.74,87.4,-52.39,839,922,900,356,925,34.48275862068966,-0.376,0.929,0.049
230460,1755604276315,22.74,87.39,-52.42,843,916,894,360,932,33.333333333333336,-0.379,0.929,0.049
230489,1755604276344,22.74,87.41,-52.42,842,911,877,389,929,34.48275862068966,-0.38,0.929,0.05
230518,1755604276374,22.75,87.41,-52.44,841,924,891,396,916,34.48275862068966,-0.38,0.928,0.05
230548,1755604276403,22.74,87.41,-52.47,842,926,886,358,920,33.333333333333336,-0.378,0.929,0.051
230577,1755604276433,22.74,87.43,-52.47,843,913,884,336,916,34.48275862068966,-0.378,0.929,0.052
230607,1755604276462,22.73,87.43,-52.48,841,914,887,363,915,33.333333333333336,-0.379,0.93,0.05
230636,1755604276491,22.73,87.45,-52.49,839,924,886,390,932,34.48275862068966,-0.377,0.929,0.05
230666,1755604276521,22.73,87.44,-52.5,843,920,884,394,924,33.333333333333336,-0.376,0.929,0.051
230695,1755604276550,22.72,87.44,-52.52,841,923,889,349,916,34.48275862068966,-0.377,0.93,0.051
230725,1755604276580,22.73,87.45,-52.52,839,911,894,362,918,33.333333333333336,-0.378,0.93,0.051
230754,1755604276609,22.74,87.46,-52.52,843,918,895,406,921,34.48275862068966,-0.377,0.929,0.05
230784,1755604276639,22.76,87.46,-52.55,844,916,892,391,921,33.333333333333336,-0.375,0.929,0.049
230813,1755604276668,22.73,87.45,-52.57,842,918,888,350,917,34.48275862068966,-0.374,0.93,0.05
230843,1755604276698,22.73,87.44,-52.57,837,915,884,305,923,33.333333333333336,-0.376,0.93,0.05
230872,1755604276727,22.74,87.46,-52.58,843,924,890,378,916,34.48275862068966,-0.376,0.929,0.048
230902,1755604276757,22.73,87.44,-52.61,849,927,894,407,918,33.333333333333336,-0.373,0.929,0.048
230931,1755604276786,22.72,87.43,-52.63,839,924,902,381,912,34.48275862068966,-0.374,0.93,0.05
230961,1755604276816,22.72,87.42,-52.63,835,917,898,353,918,33.333333333333336,-0.376,0.93,0.05
230990,1755604276846,22.72,87.42,-52.66,838,926,886,377,915,34.48275862068966,-0.378,0.928,0.05
231019,1755604276874,22.73,87.4,-52.73,843,923,884,405,917,34.48275862068966,-0.381,0.928,0.05
231049,1755604276904,22.74,87.39,-52.74,834,926,888,376,921,33.333333333333336,-0.38,0.93,0.05
231079,1755604276934,22.74,87.39,-52.75,840,919,899,341,920,33.333333333333336,-0.38,0.929,0.051
231108,1755604276963,22.76,87.4,-52.75,843,923,893,346,921,34.48275862068966,-0.379,0.929,0.052
231138,1755604276993,22.77,87.4,-52.75,840,919,887,395,913,33.333333333333336,-0.38,0.929,0.051
231167,1755604277022,22.77,87.4,-52.78,838,926,880,399,918,34.48275862068966,-0.379,0.928,0.051
231197,1755604277052,22.79,87.39,-52.79,841,913,895,346,916,33.333333333333336,-0.378,0.928,0.052
231226,1755604277081,22.79,87.4,-52.8,836,934,892,346,919,34.48275862068966,-0.379,0.929,0.052
231256,1755604277111,22.79,87.4,-52.8,835,917,886,398,913,33.333333333333336,-0.377,0.929,0.05
231276,1755604277131,22.79,87.39,-52.81,837,927,890,364,924,50.0,-0.376,0.928,0.05
231305,1755604277160,22.78,87.37,-52.84,837,925,889,391,916,34.48275862068966,-0.377,0.928,0.05
231335,1755604277190,22.77,87.36,-52.85,837,921,888,404,918,33.333333333333336,-0.377,0.928,0.051
231364,1755604277219,22.78,87.36,-52.86,837,922,894,369,922,34.48275862068966,-0.376,0.927,0.05
231393,1755604277249,22.78,87.34,-52.88,842,935,898,359,918,34.48275862068966,-0.376,0.927,0.047
231423,1755604277278,22.77,87.3,-52.98,844,933,894,390,916,33.333333333333336,-0.379,0.926,0.047
231452,1755604277308,22.76,87.3,-53.0,843,929,896,424,923,34.48275862068966,-0.38,0.929,0.049
231482,1755604277337,22.74,87.28,-53.02,844,916,883,388,920,33.333333333333336,-0.382,0.927,0.052
231541,1755604277396,22.75,87.33,-53.01,839,913,888,361,920,33.333333333333336,-0.382,0.928,0.054
231571,1755604277426,22.74,87.33,-52.99,843,919,881,387,916,33.333333333333336,-0.384,0.927,0.05
231600,1755604277456,22.74,87.34,-53.0,839,923,902,394,922,34.48275862068966,-0.381,0.928,0.051
231630,1755604277485,22.75,87.33,-52.99,842,922,880,336,922,33.333333333333336,-0.38,0.927,0.054
231659,1755604277515,22.75,87.35,-52.98,845,921,896,343,920,34.48275862068966,-0.381,0.928,0.055
231689,1755604277544,22.77,87.38,-52.98,837,908,889,381,919,33.333333333333336,-0.38,0.928,0.053
231718,1755604277573,22.78,87.39,-53.01,835,919,890,385,924,34.48275862068966,-0.378,0.927,0.051
231748,1755604277603,22.8,87.38,-53.03,839,925,895,348,917,33.333333333333336,-0.377,0.928,0.05
231777,1755604277632,22.78,87.36,-53.02,839,915,885,330,932,34.48275862068966,-0.379,0.927,0.049
231807,1755604277662,22.78,87.37,-53.05,839,926,911,375,916,33.333333333333336,-0.379,0.928,0.05
231836,1755604277691,22.79,87.38,-53.07,843,926,893,392,915,34.48275862068966,-0.38,0.928,0.05
231865,1755604277721,22.78,87.35,-53.09,840,934,904,385,933,34.48275862068966,-0.38,0.928,0.051
231895,1755604277750,22.8,87.38,-53.11,842,921,903,343,917,33.333333333333336,-0.379,0.929,0.053
231924,1755604277780,22.8,87.37,-53.1,842,920,887,349,922,34.48275862068966,-0.381,0.929,0.053
231954,1755604277809,22.8,87.39,-53.05,834,916,891,355,921,33.333333333333336,-0.383,0.929,0.052
231983,1755604277839,22.79,87.4,-53.02,839,920,887,357,924,34.48275862068966,-0.38,0.927,0.05
232013,1755604277868,22.78,87.4,-53.06,842,927,888,332,917,33.333333333333336,-0.377,0.927,0.05
232042,1755604277897,22.79,87.39,-53.08,838,916,892,344,926,34.48275862068966,-0.376,0.928,0.05
232072,1755604277927,22.79,87.36,-53.09,838,922,893,389,907,33.333333333333336,-0.379,0.927,0.049
232101,1755604277956,22.8,87.38,-53.12,841,922,886,397,920,34.48275862068966,-0.38,0.928,0.048
