timestamp_ms,recv_timestamp_ms,pitch,roll,yaw,flex1,flex2,flex3,flex4,flex5,sampling_hz,accel_x,accel_y,accel_z
1970-01-01 00:00:00.000115654,1755597907717,23.5,-44.05,-0.38,771.0,768.0,813.0,865.0,839.0,33.333333333333336,-0.399,-0.645,0.655
1970-01-01 00:00:00.000115684,1755597907719,23.5,-44.03,-0.37,771.0,,,,,33.333333333333336,-0.396,-0.644,0.655
1970-01-01 00:00:00.000115713,1755597907721,23.44,-44.06,-0.41,,,,,,34.48275862068966,-0.395,-0.643,0.652
1970-01-01 00:00:00.000115743,1755597907723,23.44,-44.08,-0.41,,,,,,33.333333333333336,-0.396,-0.644,0.653
1970-01-01 00:00:00.000115792,1755597907727,23.45,-44.03,-0.4,,,,,,34.48275862068966,-0.398,-0.645,0.656
1970-01-01 00:00:00.000115822,1755597907729,23.44,-44.01,-0.38,,,,,,33.333333333333336,-0.397,-0.644,0.654
1970-01-01 00:00:00.000115852,1755597907731,23.43,-44.04,-0.38,,,,,,33.333333333333336,-0.396,-0.643,0.655
1970-01-01 00:00:00.000115881,1755597907734,23.44,-44.03,-0.38,,,,,,34.48275862068966,-0.395,-0.643,0.657
1970-01-01 00:00:00.000115911,1755597907736,23.41,-44.03,-0.39,,,,,,33.333333333333336,-0.395,-0.644,0.657
1970-01-01 00:00:00.000115941,1755597907738,23.42,-44.04,-0.38,,,,,,33.333333333333336,-0.396,-0.644,0.656
1970-01-01 00:00:00.000116000,1755597907742,23.41,-44.05,-0.38,,,,,,33.333333333333336,-0.395,-0.643,0.655
1970-01-01 00:00:00.000116029,1755597907744,23.41,-44.06,-0.38,,,,,,34.48275862068966,-0.396,-0.643,0.656
1970-01-01 00:00:00.000116058,1755597907746,23.43,-44.03,-0.36,,,,,,34.48275862068966,-0.397,-0.644,0.658
1970-01-01 00:00:00.000116088,1755597907748,23.43,-44.04,-0.36,,,,,,33.333333333333336,-0.396,-0.644,0.657
1970-01-01 00:00:00.000116118,1755597907751,23.41,-44.04,-0.38,,,,,,33.333333333333336,-0.397,-0.643,0.654
1970-01-01 00:00:00.000116147,1755597907753,23.43,-44.06,-0.37,,,,,,34.48275862068966,-0.398,-0.643,0.654
1970-01-01 00:00:00.000116177,1755597907755,23.41,-44.07,-0.37,,,,,,33.333333333333336,-0.397,-0.643,0.657
1970-01-01 00:00:00.000116207,1755597907757,23.4,-44.06,-0.38,,,,,,33.333333333333336,-0.396,-0.644,0.659
1970-01-01 00:00:00.000116237,1755597907759,23.43,-44.01,-0.37,,,,,,33.333333333333336,-0.396,-0.644,0.657
1970-01-01 00:00:00.000116266,1755597907761,23.41,-44.02,-0.36,,,,,,34.48275862068966,-0.397,-0.645,0.654
1970-01-01 00:00:00.000116296,1755597907763,23.41,-44.05,-0.35,,,,,,33.333333333333336,-0.395,-0.644,0.655
1970-01-01 00:00:00.000116326,1755597907765,23.41,-44.03,-0.35,,,,,,33.333333333333336,-0.395,-0.643,0.656
1970-01-01 00:00:00.000116355,1755597907767,23.38,-44.01,-0.36,,,,,,34.48275862068966,-0.396,-0.643,0.655
1970-01-01 00:00:00.000116384,1755597907770,23.4,-44.03,-0.34,,,,,,34.48275862068966,-0.396,-0.642,0.654
1970-01-01 00:00:00.000116414,1755597907772,23.42,-44.02,-0.33,,,,,,33.333333333333336,-0.396,-0.643,0.655
1970-01-01 00:00:00.000116434,1755597907773,23.4,-44.03,-0.33,,,,,,50.0,-0.395,-0.644,0.654
1970-01-01 00:00:00.000116464,1755597907775,23.38,-44.03,-0.33,,,,,,33.333333333333336,-0.395,-0.644,0.654
1970-01-01 00:00:00.000116493,1755597907778,23.37,-44.02,-0.32,,,,,,34.48275862068966,-0.396,-0.645,0.655
1970-01-01 00:00:00.000116523,1755597907779,23.38,-44.01,-0.3,,,,,,33.333333333333336,-0.396,-0.644,0.655
1970-01-01 00:00:00.000116552,1755597907782,23.37,-44.01,-0.29,,,,,,34.48275862068966,-0.395,-0.643,0.653
1970-01-01 00:00:00.000116582,1755597907784,23.36,-44.03,-0.29,,,,,,33.333333333333336,-0.395,-0.643,0.655
1970-01-01 00:00:00.000116603,1755597907786,23.37,-44.03,-0.28,,,,,,47.61904761904762,-0.395,-0.642,0.657
1970-01-01 00:00:00.000116632,1755597907788,23.38,-44.01,-0.29,,,,,,34.48275862068966,-0.394,-0.641,0.657
1970-01-01 00:00:00.000116661,1755597907790,23.38,-44.03,-0.31,,,,,,34.48275862068966,-0.395,-0.642,0.654
1970-01-01 00:00:00.000116691,1755597907792,23.37,-44.06,-0.33,,,,,,33.333333333333336,-0.397,-0.642,0.653
1970-01-01 00:00:00.000116720,1755597907801,23.41,-44.09,-0.34,,,,,,34.48275862068966,-0.398,-0.643,0.656
1970-01-01 00:00:00.000116750,1755597907830,23.41,-44.06,-0.34,,,,,,33.333333333333336,-0.396,-0.643,0.654
1970-01-01 00:00:00.000116780,1755597907860,23.39,-44.06,-0.37,,,,,,33.333333333333336,-0.395,-0.643,0.653
1970-01-01 00:00:00.000116809,1755597907890,23.41,-44.07,-0.36,,,,,,34.48275862068966,-0.396,-0.643,0.656
1970-01-01 00:00:00.000116868,1755597907949,23.4,-44.04,-0.34,,,,,,34.48275862068966,-0.398,-0.644,0.653
1970-01-01 00:00:00.000116898,1755597907978,23.42,-44.03,-0.31,,,,,,33.333333333333336,-0.397,-0.643,0.655
1970-01-01 00:00:00.000116928,1755597908008,23.42,-44.01,-0.3,,,,,,33.333333333333336,-0.395,-0.643,0.656
1970-01-01 00:00:00.000116957,1755597908037,23.41,-44.02,-0.3,,,,,,34.48275862068966,-0.394,-0.643,0.654
1970-01-01 00:00:00.000116986,1755597908067,23.4,-44.0,-0.29,,,,,,34.48275862068966,-0.394,-0.643,0.654
1970-01-01 00:00:00.000117016,1755597908096,23.4,-44.0,-0.27,,,,,,33.333333333333336,-0.394,-0.644,0.655
1970-01-01 00:00:00.000117045,1755597908127,23.39,-44.01,-0.29,,,,,,34.48275862068966,-0.396,-0.644,0.654
1970-01-01 00:00:00.000117066,1755597908147,23.38,-44.02,-0.29,,,,,,47.61904761904762,-0.398,-0.644,0.653
1970-01-01 00:00:00.000117096,1755597908176,23.39,-44.03,-0.25,,,,,,33.333333333333336,-0.397,-0.642,0.653
1970-01-01 00:00:00.000117125,1755597908206,23.39,-44.03,-0.24,,,,,,34.48275862068966,-0.396,-0.643,0.656
1970-01-01 00:00:00.000117155,1755597908235,23.38,-44.03,-0.25,,,,,,33.333333333333336,-0.395,-0.643,0.654
1970-01-01 00:00:00.000117184,1755597908264,23.38,-44.04,-0.24,,,,,,34.48275862068966,-0.396,-0.642,0.655
1970-01-01 00:00:00.000117213,1755597908294,23.39,-44.03,-0.24,,,,,,34.48275862068966,-0.396,-0.641,0.657
1970-01-01 00:00:00.000117243,1755597908323,23.39,-44.03,-0.24,,,,,,33.333333333333336,-0.395,-0.642,0.655
1970-01-01 00:00:00.000117272,1755597908353,23.4,-44.04,-0.22,,,,,,34.48275862068966,-0.396,-0.642,0.653
1970-01-01 00:00:00.000117302,1755597908382,23.39,-44.05,-0.2,,,,,,33.333333333333336,-0.396,-0.641,0.654
1970-01-01 00:00:00.000117331,1755597908412,23.38,-44.05,-0.2,,,,,,34.48275862068966,-0.396,-0.641,0.657
1970-01-01 00:00:00.000117361,1755597908441,23.38,-44.05,-0.19,,,,,,33.333333333333336,-0.396,-0.642,0.656
1970-01-01 00:00:00.000117391,1755597908471,23.39,-44.07,-0.19,,,,,,33.333333333333336,-0.397,-0.642,0.654
1970-01-01 00:00:00.000117420,1755597908501,23.38,-44.06,-0.18,,,,,,34.48275862068966,-0.397,-0.642,0.655
1970-01-01 00:00:00.000117450,1755597908530,23.41,-44.05,-0.16,,,,,,33.333333333333336,-0.396,-0.642,0.655
1970-01-01 00:00:00.000117479,1755597908560,23.41,-44.08,-0.17,,,,,,34.48275862068966,-0.395,-0.642,0.653
1970-01-01 00:00:00.000117509,1755597908589,23.4,-44.08,-0.19,,,,,,33.333333333333336,-0.396,-0.643,0.655
1970-01-01 00:00:00.000117538,1755597908619,23.41,-44.07,-0.17,,,,,,34.48275862068966,-0.396,-0.643,0.655
1970-01-01 00:00:00.000117568,1755597908649,23.43,-44.06,-0.16,,,,,,33.333333333333336,-0.396,-0.642,0.654
1970-01-01 00:00:00.000117598,1755597908678,23.4,-44.07,-0.19,,,,,,33.333333333333336,-0.395,-0.64,0.654
1970-01-01 00:00:00.000117627,1755597908708,23.39,-44.1,-0.21,,,,,,34.48275862068966,-0.396,-0.641,0.655
1970-01-01 00:00:00.000117657,1755597908737,23.41,-44.09,-0.21,,,,,,33.333333333333336,-0.396,-0.643,0.656
1970-01-01 00:00:00.000117686,1755597908767,23.41,-44.05,-0.19,,,,,,34.48275862068966,-0.395,-0.643,0.655
1970-01-01 00:00:00.000117715,1755597908796,23.39,-44.08,-0.22,,,,,,34.48275862068966,-0.395,-0.641,0.652
1970-01-01 00:00:00.000117745,1755597908826,23.37,-44.11,-0.23,,,,,,33.333333333333336,-0.397,-0.643,0.653
1970-01-01 00:00:00.000117775,1755597908855,23.38,-44.09,-0.2,,,,,,33.333333333333336,-0.397,-0.644,0.656
1970-01-01 00:00:00.000117804,1755597908885,23.4,-44.06,-0.18,,,,,,34.48275862068966,-0.396,-0.643,0.655
1970-01-01 00:00:00.000117834,1755597908914,23.37,-44.1,-0.2,,,,,,33.333333333333336,-0.395,-0.642,0.653
1970-01-01 00:00:00.000117863,1755597908944,23.35,-44.12,-0.2,,,,,,34.48275862068966,-0.395,-0.641,0.654
1970-01-01 00:00:00.000117893,1755597908973,23.37,-44.09,-0.18,,,,,,33.333333333333336,-0.396,-0.642,0.658
1970-01-01 00:00:00.000117922,1755597909003,23.37,-44.07,-0.17,,,,,,34.48275862068966,-0.395,-0.642,0.655
1970-01-01 00:00:00.000117952,1755597909032,23.36,-44.09,-0.17,,,,,,33.333333333333336,-0.395,-0.642,0.653
1970-01-01 00:00:00.000117982,1755597909062,23.37,-44.11,-0.16,,,,,,33.333333333333336,-0.395,-0.642,0.654
1970-01-01 00:00:00.000118011,1755597909091,23.36,-44.11,-0.17,,,,,,34.48275862068966,-0.394,-0.643,0.656
1970-01-01 00:00:00.000118040,1755597909121,23.36,-44.12,-0.17,,,,,,34.48275862068966,-0.394,-0.642,0.655
1970-01-01 00:00:00.000118070,1755597909150,23.36,-44.12,-0.16,,,,,,33.333333333333336,-0.396,-0.643,0.653
1970-01-01 00:00:00.000118099,1755597909180,23.38,-44.11,-0.13,,,,,,34.48275862068966,-0.395,-0.643,0.653
1970-01-01 00:00:00.000118129,1755597909209,23.36,-44.12,-0.14,,,,,,33.333333333333336,-0.394,-0.642,0.653
1970-01-01 00:00:00.000118158,1755597909239,23.35,-44.11,-0.14,,,,,,34.48275862068966,-0.396,-0.642,0.654
1970-01-01 00:00:00.000118188,1755597909268,23.36,-44.1,-0.12,,,,,,33.333333333333336,-0.396,-0.643,0.654
1970-01-01 00:00:00.000118217,1755597909298,23.37,-44.1,-0.1,,,,,,34.48275862068966,-0.395,-0.643,0.655
1970-01-01 00:00:00.000118247,1755597909327,23.35,-44.1,-0.1,,,,,,33.333333333333336,-0.393,-0.643,0.654
1970-01-01 00:00:00.000118306,1755597909386,23.36,-44.1,-0.11,,,,,,34.48275862068966,-0.396,-0.642,0.655
1970-01-01 00:00:00.000118335,1755597909416,23.35,-44.1,-0.11,,,,,,34.48275862068966,-0.396,-0.643,0.655
1970-01-01 00:00:00.000118365,1755597909445,23.36,-44.08,-0.1,,,,,,33.333333333333336,-0.394,-0.642,0.653
1970-01-01 00:00:00.000118394,1755597909475,23.36,-44.1,-0.12,,,,,,34.48275862068966,-0.394,-0.643,0.653
1970-01-01 00:00:00.000118424,1755597909504,23.35,-44.11,-0.12,,,,,,33.333333333333336,-0.396,-0.643,0.655
1970-01-01 00:00:00.000118453,1755597909534,23.36,-44.1,-0.11,,,,,,34.48275862068966,-0.397,-0.643,0.654
1970-01-01 00:00:00.000118483,1755597909563,23.37,-44.11,-0.11,,,,,,33.333333333333336,-0.395,-0.642,0.652
1970-01-01 00:00:00.000118513,1755597909593,23.36,-44.14,-0.11,,,,,,33.333333333333336,-0.395,-0.642,0.653
1970-01-01 00:00:00.000118542,1755597909622,23.36,-44.12,-0.1,,,,,,34.48275862068966,-0.395,-0.643,0.654
1970-01-01 00:00:00.000118571,1755597909652,23.37,-44.08,-0.08,,,,,,34.48275862068966,-0.395,-0.644,0.654
1970-01-01 00:00:00.000118601,1755597909681,23.4,-44.05,-0.04,,,,,,33.333333333333336,-0.394,-0.641,0.653
1970-01-01 00:00:00.000118630,1755597909711,23.31,-43.99,-0.08,,,,,,34.48275862068966,-0.395,-0.64,0.651
1970-01-01 00:00:00.000118660,1755597909740,23.27,-44.04,-0.08,,,,,,33.333333333333336,-0.398,-0.642,0.65
1970-01-01 00:00:00.000118689,1755597909770,23.3,-44.06,-0.03,,,,,,34.48275862068966,-0.397,-0.641,0.653
1970-01-01 00:00:00.000118719,1755597909800,23.33,-44.04,0.0,,,,,,33.333333333333336,-0.394,-0.641,0.657
1970-01-01 00:00:00.000118749,1755597909829,23.32,-44.02,-0.02,,,,,,33.333333333333336,-0.39,-0.64,0.658
1970-01-01 00:00:00.000118778,1755597909858,23.32,-44.04,-0.07,,,,,,34.48275862068966,-0.392,-0.639,0.655
1970-01-01 00:00:00.000118808,1755597909888,23.34,-44.09,-0.06,,,,,,33.333333333333336,-0.396,-0.641,0.653
1970-01-01 00:00:00.000118837,1755597909918,23.4,-44.08,-0.02,,,,,,34.48275862068966,-0.396,-0.642,0.657
1970-01-01 00:00:00.000118867,1755597909947,23.4,-44.03,0.0,,,,,,33.333333333333336,-0.395,-0.643,0.656
1970-01-01 00:00:00.000118896,1755597909977,23.4,-44.03,0.0,,,,,,34.48275862068966,-0.394,-0.643,0.654
1970-01-01 00:00:00.000118926,1755597910007,23.4,-44.05,0.0,,,,,,33.333333333333336,-0.394,-0.642,0.653
1970-01-01 00:00:00.000118956,1755597910036,23.4,-44.04,0.01,,,,,,33.333333333333336,-0.395,-0.641,0.655
1970-01-01 00:00:00.000118985,1755597910066,23.39,-43.99,-0.01,,,,,,34.48275862068966,-0.395,-0.64,0.657
1970-01-01 00:00:00.000119015,1755597910096,23.4,-43.95,-0.04,,,,,,33.333333333333336,-0.398,-0.641,0.655
1970-01-01 00:00:00.000119045,1755597910125,23.87,-43.97,-0.04,,,,,,33.333333333333336,-0.398,-0.642,0.653
1970-01-01 00:00:00.000119074,1755597910155,23.87,-43.97,-0.02,,,,,,34.48275862068966,-0.397,-0.643,0.655
1970-01-01 00:00:00.000119104,1755597910185,23.91,-43.97,0.02,,,,,,33.333333333333336,-0.395,-0.643,0.656
1970-01-01 00:00:00.000119134,1755597910214,23.93,-43.96,0.03,,,,,,33.333333333333336,-0.396,-0.641,0.656
1970-01-01 00:00:00.000119163,1755597910243,23.89,-43.99,0.0,,,,,,34.48275862068966,-0.398,-0.638,0.652
1970-01-01 00:00:00.000119193,1755597910273,23.87,-44.04,0.01,,,,,,33.333333333333336,-0.4,-0.639,0.653
1970-01-01 00:00:00.000119222,1755597910302,23.86,-44.06,0.04,,,,,,34.48275862068966,-0.399,-0.639,0.655
1970-01-01 00:00:00.000119251,1755597910332,23.85,-44.05,0.04,,,,,,34.48275862068966,-0.398,-0.64,0.657
1970-01-01 00:00:00.000119281,1755597910361,23.82,-44.03,0.03,,,,,,33.333333333333336,-0.396,-0.64,0.657
1970-01-01 00:00:00.000119310,1755597910391,23.8,-44.03,0.03,,,,,,34.48275862068966,-0.395,-0.641,0.656
1970-01-01 00:00:00.000119340,1755597910421,23.81,-44.05,0.02,,,,,,33.333333333333336,-0.396,-0.642,0.655
1970-01-01 00:00:00.000119370,1755597910450,23.76,-44.03,0.0,,,,,,33.333333333333336,-0.397,-0.642,0.655
1970-01-01 00:00:00.000119399,1755597910480,23.7,-44.0,-0.01,,,,,,34.48275862068966,-0.398,-0.643,0.654
1970-01-01 00:00:00.000119429,1755597910510,23.72,-44.0,0.02,,,,,,33.333333333333336,-0.398,-0.641,0.655
1970-01-01 00:00:00.000119449,1755597910530,23.73,-43.99,0.04,,,,,,50.0,-0.397,-0.643,0.656
1970-01-01 00:00:00.000119479,1755597910559,23.7,-43.98,0.04,,,,,,33.333333333333336,-0.397,-0.642,0.655
1970-01-01 00:00:00.000119508,1755597910589,23.65,-43.96,0.05,,,,,,34.48275862068966,-0.399,-0.642,0.656
1970-01-01 00:00:00.000119538,1755597910618,23.65,-43.96,0.1,,,,,,33.333333333333336,-0.398,-0.641,0.656
1970-01-01 00:00:00.000119567,1755597910648,23.67,-43.97,0.15,,,,,,34.48275862068966,-0.397,-0.638,0.657
1970-01-01 00:00:00.000119597,1755597910677,23.65,-43.98,0.17,,,,,,33.333333333333336,-0.393,-0.635,0.657
1970-01-01 00:00:00.000119626,1755597910707,23.65,-44.03,0.16,,,,,,34.48275862068966,-0.391,-0.639,0.659
1970-01-01 00:00:00.000119656,1755597910736,23.68,-44.02,0.19,,,,,,33.333333333333336,-0.393,-0.641,0.66
1970-01-01 00:00:00.000119685,1755597910766,23.71,-43.97,0.22,,,,,,34.48275862068966,-0.398,-0.641,0.657
1970-01-01 00:00:00.000119715,1755597910795,23.68,-43.98,0.25,,,,,,33.333333333333336,-0.395,-0.638,0.654
1970-01-01 00:00:00.000119744,1755597910824,23.71,-44.04,0.27,,,,,,34.48275862068966,-0.393,-0.637,0.656
1970-01-01 00:00:00.000119773,1755597910854,23.74,-44.09,0.26,,,,,,34.48275862068966,-0.392,-0.64,0.66
1970-01-01 00:00:00.000119803,1755597910883,23.72,-44.02,0.26,,,,,,33.333333333333336,-0.396,-0.644,0.663
1970-01-01 00:00:00.000119832,1755597910913,23.76,-43.9,0.31,,,,,,34.48275862068966,-0.399,-0.643,0.658
1970-01-01 00:00:00.000119862,1755597910942,23.78,-43.83,0.38,,,,,,33.333333333333336,-0.403,-0.642,0.652
1970-01-01 00:00:00.000119891,1755597910972,23.7,-43.77,0.45,,,,,,34.48275862068966,-0.41,-0.642,0.65
1970-01-01 00:00:00.000119921,1755597911001,23.5,-43.72,0.5,,,,,,33.333333333333336,-0.407,-0.638,0.651
1970-01-01 00:00:00.000119950,1755597911031,23.48,-43.75,0.61,,,,,,34.48275862068966,-0.403,-0.637,0.656
1970-01-01 00:00:00.000119979,1755597911060,23.57,-43.79,0.74,,,,,,34.48275862068966,-0.401,-0.638,0.661
1970-01-01 00:00:00.000120009,1755597911089,23.58,-43.74,0.85,,,,,,33.333333333333336,-0.397,-0.636,0.663
1970-01-01 00:00:00.000120038,1755597911119,23.62,-43.75,0.92,,,,,,34.48275862068966,-0.395,-0.634,0.662
1970-01-01 00:00:00.000120068,1755597911148,23.69,-43.73,0.97,,,,,,33.333333333333336,-0.397,-0.636,0.664
1970-01-01 00:00:00.000120097,1755597911178,23.66,-43.61,1.02,,,,,,34.48275862068966,-0.4,-0.635,0.666
1970-01-01 00:00:00.000120127,1755597911207,23.69,-43.53,1.11,,,,,,33.333333333333336,-0.401,-0.627,0.663
1970-01-01 00:00:00.000120156,1755597911237,23.78,-43.53,1.17,,,,,,34.48275862068966,-0.404,-0.626,0.666
1970-01-01 00:00:00.000120215,1755597911296,23.92,-43.51,1.24,,,,,,34.48275862068966,-0.405,-0.624,0.661
1970-01-01 00:00:00.000120245,1755597911325,23.93,-43.59,1.24,,,,,,33.333333333333336,-0.409,-0.625,0.658
1970-01-01 00:00:00.000120274,1755597911355,23.93,-43.64,1.25,,,,,,34.48275862068966,-0.413,-0.63,0.66
1970-01-01 00:00:00.000120334,1755597911415,23.97,-43.63,1.41,,,,,,33.333333333333336,-0.414,-0.63,0.658
1970-01-01 00:00:00.000120354,1755597911434,24.01,-43.65,1.46,,,,,,50.0,-0.41,-0.627,0.66
1970-01-01 00:00:00.000120383,1755597911464,24.04,-43.66,1.48,,,,,,34.48275862068966,-0.407,-0.624,0.664
1970-01-01 00:00:00.000120413,1755597911493,24.05,-43.66,1.46,,,,,,33.333333333333336,-0.407,-0.625,0.665
1970-01-01 00:00:00.000120442,1755597911523,24.14,-43.68,1.46,,,,,,34.48275862068966,-0.412,-0.629,0.664
1970-01-01 00:00:00.000120472,1755597911552,24.17,-43.58,1.48,,,,,,33.333333333333336,-0.415,-0.633,0.661
1970-01-01 00:00:00.000120501,1755597911582,24.14,-43.47,1.48,,,,,,34.48275862068966,-0.414,-0.63,0.658
1970-01-01 00:00:00.000120531,1755597911611,24.1,-43.4,1.45,,,,,,33.333333333333336,-0.415,-0.626,0.659
1970-01-01 00:00:00.000120560,1755597911641,24.1,-43.36,1.42,,,,,,34.48275862068966,-0.416,-0.623,0.66
1970-01-01 00:00:00.000120590,1755597911670,24.18,-43.35,1.42,,,,,,33.333333333333336,-0.418,-0.624,0.663
1970-01-01 00:00:00.000120619,1755597911700,24.28,-43.3,1.43,,,,,,34.48275862068966,-0.418,-0.622,0.664
1970-01-01 00:00:00.000120649,1755597911729,24.25,-43.26,1.37,,,,,,33.333333333333336,-0.415,-0.618,0.66
1970-01-01 00:00:00.000120678,1755597911759,24.22,-43.32,1.29,,,,,,34.48275862068966,-0.414,-0.623,0.661
1970-01-01 00:00:00.000120708,1755597911788,24.32,-43.31,1.28,,,,,,33.333333333333336,-0.419,-0.628,0.662
1970-01-01 00:00:00.000120737,1755597911818,24.34,-43.26,1.3,,,,,,34.48275862068966,-0.422,-0.626,0.658
1970-01-01 00:00:00.000120767,1755597911847,24.33,-43.25,1.3,,,,,,33.333333333333336,-0.418,-0.625,0.657
1970-01-01 00:00:00.000120796,1755597911877,24.36,-43.28,1.27,,,,,,34.48275862068966,-0.418,-0.624,0.657
1970-01-01 00:00:00.000120826,1755597911906,24.34,-43.31,1.24,,,,,,33.333333333333336,-0.421,-0.625,0.658
1970-01-01 00:00:00.000120855,1755597911936,24.37,-43.31,1.28,,,,,,34.48275862068966,-0.422,-0.619,0.658
1970-01-01 00:00:00.000120915,1755597911995,24.35,-43.35,1.3,,,,,,33.333333333333336,-0.417,-0.623,0.661
1970-01-01 00:00:00.000120944,1755597912024,24.39,-43.38,1.33,,,,,,34.48275862068966,-0.417,-0.621,0.659
1970-01-01 00:00:00.000120974,1755597912054,24.39,-43.4,1.32,,,,,,33.333333333333336,-0.415,-0.62,0.66
1970-01-01 00:00:00.000121003,1755597912083,24.4,-43.45,1.3,,,,,,34.48275862068966,-0.416,-0.622,0.66
1970-01-01 00:00:00.000121032,1755597912113,24.4,-43.48,1.29,,,,,,34.48275862068966,-0.418,-0.622,0.656
1970-01-01 00:00:00.000121091,1755597912172,24.26,-43.5,1.32,,,,,,34.48275862068966,-0.418,-0.631,0.661
1970-01-01 00:00:00.000121121,1755597912201,24.29,-43.49,1.37,,,,,,33.333333333333336,-0.414,-0.629,0.662
1970-01-01 00:00:00.000121150,1755597912231,24.25,-43.44,1.36,,,,,,34.48275862068966,-0.412,-0.626,0.664
1970-01-01 00:00:00.000121180,1755597912260,24.16,-43.44,1.3,,,,,,33.333333333333336,-0.413,-0.624,0.662
1970-01-01 00:00:00.000121209,1755597912290,24.17,-43.44,1.29,,,,,,34.48275862068966,-0.416,-0.625,0.661
1970-01-01 00:00:00.000121239,1755597912320,24.24,-43.45,1.31,,,,,,33.333333333333336,-0.417,-0.626,0.659
1970-01-01 00:00:00.000121259,1755597912339,24.27,-43.47,1.31,,,,,,50.0,-0.415,-0.627,0.658
1970-01-01 00:00:00.000121288,1755597912369,24.27,-43.47,1.3,,,,,,34.48275862068966,-0.414,-0.627,0.66
1970-01-01 00:00:00.000121318,1755597912398,24.24,-43.44,1.27,,,,,,33.333333333333336,-0.412,-0.63,0.661
1970-01-01 00:00:00.000121377,1755597912458,24.29,-43.43,1.28,,,,,,33.333333333333336,-0.413,-0.628,0.66
1970-01-01 00:00:00.000121407,1755597912487,24.25,-43.4,1.26,,,,,,33.333333333333336,-0.414,-0.629,0.66
1970-01-01 00:00:00.000121436,1755597912518,24.25,-43.4,1.29,,,,,,34.48275862068966,-0.415,-0.629,0.658
1970-01-01 00:00:00.000121457,1755597912537,24.29,-43.42,1.33,,,,,,47.61904761904762,-0.414,-0.627,0.658
1970-01-01 00:00:00.000121486,1755597912567,24.34,-43.42,1.36,,,,,,34.48275862068966,-0.413,-0.627,0.658
1970-01-01 00:00:00.000121516,1755597912596,24.33,-43.43,1.35,,,,,,33.333333333333336,-0.412,-0.627,0.659
1970-01-01 00:00:00.000121545,1755597912626,24.31,-43.41,1.34,,,,,,34.48275862068966,-0.412,-0.628,0.659
1970-01-01 00:00:00.000121575,1755597912655,24.34,-43.4,1.35,,,,,,33.333333333333336,-0.414,-0.63,0.659
1970-01-01 00:00:00.000121633,1755597912714,24.33,-43.36,1.36,,,,,,34.48275862068966,-0.415,-0.629,0.654
1970-01-01 00:00:00.000121663,1755597912743,24.32,-43.38,1.36,,,,,,33.333333333333336,-0.415,-0.63,0.658
1970-01-01 00:00:00.000121692,1755597912773,24.35,-43.35,1.39,,,,,,34.48275862068966,-0.412,-0.628,0.659
1970-01-01 00:00:00.000121752,1755597912832,24.31,-43.41,1.33,,,,,,33.333333333333336,-0.414,-0.628,0.659
1970-01-01 00:00:00.000121781,1755597912862,24.34,-43.39,1.34,,,,,,34.48275862068966,-0.414,-0.629,0.662
1970-01-01 00:00:00.000121811,1755597912891,24.41,-43.37,1.38,,,,,,33.333333333333336,-0.41,-0.625,0.661
1970-01-01 00:00:00.000121840,1755597912921,24.46,-43.38,1.36,,,,,,34.48275862068966,-0.408,-0.625,0.662
1970-01-01 00:00:00.000121870,1755597912950,24.41,-43.37,1.29,,,,,,33.333333333333336,-0.41,-0.626,0.659
1970-01-01 00:00:00.000121929,1755597913009,24.42,-43.41,1.28,,,,,,33.333333333333336,-0.418,-0.63,0.662
1970-01-01 00:00:00.000121958,1755597913038,24.45,-43.37,1.32,,,,,,34.48275862068966,-0.417,-0.63,0.661
1970-01-01 00:00:00.000122017,1755597913098,24.4,-43.49,1.29,,,,,,33.333333333333336,-0.415,-0.63,0.658
1970-01-01 00:00:00.000122046,1755597913127,24.45,-43.48,1.34,,,,,,34.48275862068966,-0.413,-0.629,0.66
1970-01-01 00:00:00.000122105,1755597913186,24.49,-43.46,1.29,,,,,,34.48275862068966,-0.411,-0.631,0.659
1970-01-01 00:00:00.000122135,1755597913215,24.5,-43.43,1.29,,,,,,33.333333333333336,-0.416,-0.633,0.659
1970-01-01 00:00:00.000122164,1755597913245,24.57,-43.4,1.35,,,,,,34.48275862068966,-0.416,-0.627,0.657
1970-01-01 00:00:00.000122194,1755597913274,24.61,-43.4,1.36,,,,,,33.333333333333336,-0.419,-0.627,0.658
1970-01-01 00:00:00.000122253,1755597913333,24.53,-43.38,1.37,,,,,,33.333333333333336,-0.419,-0.633,0.658
1970-01-01 00:00:00.000122282,1755597913363,24.62,-43.34,1.46,,,,,,34.48275862068966,-0.415,-0.628,0.657
1970-01-01 00:00:00.000122312,1755597913392,24.6,-43.38,1.44,,,,,,33.333333333333336,-0.419,-0.625,0.658
1970-01-01 00:00:00.000122341,1755597913422,24.59,-43.34,1.43,,,,,,34.48275862068966,-0.424,-0.628,0.658
1970-01-01 00:00:00.000122371,1755597913451,24.65,-43.32,1.5,,,,,,33.333333333333336,-0.424,-0.63,0.652
1970-01-01 00:00:00.000122400,1755597913481,24.7,-43.39,1.55,,,,,,34.48275862068966,-0.417,-0.627,0.652
1970-01-01 00:00:00.000122430,1755597913510,24.64,-43.43,1.5,,,,,,33.333333333333336,-0.415,-0.627,0.655
1970-01-01 00:00:00.000122459,1755597913540,24.57,-43.44,1.46,,,,,,34.48275862068966,-0.418,-0.628,0.657
1970-01-01 00:00:00.000122518,1755597913599,24.63,-43.39,1.55,,,,,,34.48275862068966,-0.417,-0.629,0.662
1970-01-01 00:00:00.000122547,1755597913628,24.53,-43.32,1.51,,,,,,34.48275862068966,-0.413,-0.627,0.658
1970-01-01 00:00:00.000122577,1755597913658,24.47,-43.34,1.46,,,,,,33.333333333333336,-0.415,-0.627,0.654
1970-01-01 00:00:00.000122636,1755597913717,24.46,-43.27,1.5,,,,,,33.333333333333336,-0.422,-0.633,0.661
1970-01-01 00:00:00.000122665,1755597913746,24.5,-43.17,1.58,,,,,,34.48275862068966,-0.418,-0.628,0.659
1970-01-01 00:00:00.000122695,1755597913775,24.54,-43.16,1.63,,,,,,33.333333333333336,-0.413,-0.624,0.658
1970-01-01 00:00:00.000122724,1755597913805,24.51,-43.18,1.63,,,,,,34.48275862068966,-0.412,-0.627,0.662
1970-01-01 00:00:00.000122754,1755597913834,24.48,-43.13,1.64,,,,,,33.333333333333336,-0.412,-0.627,0.66
1970-01-01 00:00:00.000122783,1755597913864,24.48,-43.14,1.64,,,,,,34.48275862068966,-0.415,-0.626,0.659
1970-01-01 00:00:00.000122813,1755597913893,24.47,-43.18,1.65,,,,,,33.333333333333336,-0.417,-0.626,0.659
1970-01-01 00:00:00.000122842,1755597913923,24.51,-43.19,1.69,,,,,,34.48275862068966,-0.417,-0.626,0.66
1970-01-01 00:00:00.000122872,1755597913952,24.52,-43.21,1.71,,,,,,33.333333333333336,-0.416,-0.625,0.66
1970-01-01 00:00:00.000122931,1755597914011,24.53,-43.21,1.69,,,,,,33.333333333333336,-0.413,-0.621,0.662
1970-01-01 00:00:00.000122960,1755597914041,24.52,-43.22,1.63,,,,,,34.48275862068966,-0.415,-0.623,0.662
1970-01-01 00:00:00.000122990,1755597914070,24.57,-43.21,1.62,,,,,,33.333333333333336,-0.417,-0.625,0.661
1970-01-01 00:00:00.000123019,1755597914100,24.6,-43.18,1.61,,,,,,34.48275862068966,-0.419,-0.626,0.658
1970-01-01 00:00:00.000123049,1755597914129,24.57,-43.2,1.59,,,,,,33.333333333333336,-0.42,-0.626,0.656
1970-01-01 00:00:00.000123078,1755597914159,24.57,-43.22,1.6,,,,,,34.48275862068966,-0.42,-0.627,0.657
1970-01-01 00:00:00.000123167,1755597914247,24.61,-43.17,1.69,,,,,,33.333333333333336,-0.417,-0.629,0.657
1970-01-01 00:00:00.000123196,1755597914277,24.62,-43.17,1.69,,,,,,34.48275862068966,-0.416,-0.624,0.659
1970-01-01 00:00:00.000123226,1755597914306,24.59,-43.16,1.66,,,,,,33.333333333333336,-0.414,-0.624,0.662
1970-01-01 00:00:00.000123255,1755597914335,24.62,-43.13,1.65,,,,,,34.48275862068966,-0.416,-0.623,0.659
1970-01-01 00:00:00.000123284,1755597914365,24.65,-43.16,1.64,,,,,,34.48275862068966,-0.418,-0.624,0.658
1970-01-01 00:00:00.000123343,1755597914424,24.69,-43.2,1.66,,,,,,34.48275862068966,-0.417,-0.623,0.656
1970-01-01 00:00:00.000123373,1755597914453,24.7,-43.24,1.63,,,,,,33.333333333333336,-0.418,-0.623,0.659
1970-01-01 00:00:00.000123432,1755597914512,24.69,-43.28,1.6,,,,,,33.333333333333336,-0.417,-0.624,0.658
1970-01-01 00:00:00.000123461,1755597914542,24.68,-43.3,1.58,,,,,,34.48275862068966,-0.416,-0.626,0.659
1970-01-01 00:00:00.000123490,1755597914571,24.69,-43.29,1.57,,,,,,34.48275862068966,-0.416,-0.629,0.659
1970-01-01 00:00:00.000123520,1755597914600,24.71,-43.28,1.57,,,,,,33.333333333333336,-0.417,-0.627,0.656
1970-01-01 00:00:00.000123549,1755597914630,24.7,-43.31,1.54,,,,,,34.48275862068966,-0.419,-0.626,0.655
1970-01-01 00:00:00.000123579,1755597914660,24.72,-43.31,1.54,,,,,,33.333333333333336,-0.42,-0.628,0.655
1970-01-01 00:00:00.000123609,1755597914689,24.73,-43.31,1.55,,,,,,33.333333333333336,-0.421,-0.629,0.655
1970-01-01 00:00:00.000123638,1755597914719,24.7,-43.32,1.55,,,,,,34.48275862068966,-0.418,-0.628,0.655
1970-01-01 00:00:00.000123697,1755597914778,24.7,-43.35,1.53,,,,,,34.48275862068966,-0.417,-0.627,0.654
1970-01-01 00:00:00.000123727,1755597914807,24.68,-43.37,1.52,,,,,,33.333333333333336,-0.418,-0.629,0.657
1970-01-01 00:00:00.000123756,1755597914836,24.69,-43.34,1.52,,,,,,34.48275862068966,-0.417,-0.629,0.656
1970-01-01 00:00:00.000123785,1755597914866,24.71,-43.34,1.51,,,,,,34.48275862068966,-0.417,-0.628,0.654
1970-01-01 00:00:00.000123815,1755597914896,24.69,-43.39,1.49,,,,,,33.333333333333336,-0.418,-0.63,0.655
1970-01-01 00:00:00.000123874,1755597914954,24.72,-43.38,1.52,,,,,,33.333333333333336,-0.416,-0.63,0.656
1970-01-01 00:00:00.000123903,1755597914984,24.7,-43.39,1.5,,,,,,34.48275862068966,-0.415,-0.628,0.654
1970-01-01 00:00:00.000123933,1755597915014,24.66,-43.43,1.49,,,,,,33.333333333333336,-0.417,-0.63,0.654
1970-01-01 00:00:00.000123963,1755597915044,24.68,-43.44,1.53,,,,,,33.333333333333336,-0.416,-0.631,0.657
1970-01-01 00:00:00.000123983,1755597915063,24.71,-43.43,1.56,,,,,,50.0,-0.415,-0.631,0.658
1970-01-01 00:00:00.000124012,1755597915093,24.68,-43.41,1.56,,,,,,34.48275862068966,-0.413,-0.628,0.655
1970-01-01 00:00:00.000124041,1755597915122,24.63,-43.44,1.53,,,,,,34.48275862068966,-0.414,-0.628,0.656
1970-01-01 00:00:00.000124071,1755597915151,24.65,-43.44,1.53,,,,,,33.333333333333336,-0.417,-0.63,0.657
1970-01-01 00:00:00.000124100,1755597915181,24.66,-43.42,1.56,,,,,,34.48275862068966,-0.418,-0.63,0.655
1970-01-01 00:00:00.000124130,1755597915210,24.63,-43.41,1.57,,,,,,33.333333333333336,-0.416,-0.63,0.654
1970-01-01 00:00:00.000124189,1755597915269,24.62,-43.42,1.57,,,,,,33.333333333333336,-0.414,-0.629,0.656
1970-01-01 00:00:00.000124218,1755597915299,24.61,-43.41,1.56,,,,,,34.48275862068966,-0.414,-0.629,0.658
1970-01-01 00:00:00.000124248,1755597915328,24.6,-43.4,1.55,,,,,,33.333333333333336,-0.414,-0.629,0.659
1970-01-01 00:00:00.000124277,1755597915358,24.59,-43.39,1.54,,,,,,34.48275862068966,-0.415,-0.629,0.657
1970-01-01 00:00:00.000124307,1755597915388,24.17,-43.42,1.53,,,,,,33.333333333333336,-0.418,-0.629,0.654
1970-01-01 00:00:00.000124327,1755597915408,24.17,-43.46,1.53,,,,,,50.0,-0.416,-0.629,0.655
1970-01-01 00:00:00.000124357,1755597915437,24.17,-43.45,1.54,,,,,,33.333333333333336,-0.414,-0.631,0.66
1970-01-01 00:00:00.000124386,1755597915467,24.2,-43.4,1.56,,,,,,34.48275862068966,-0.412,-0.632,0.66
