timestamp_ms,recv_timestamp_ms,pitch,roll,yaw,flex1,flex2,flex3,flex4,flex5,sampling_hz,accel_x,accel_y,accel_z
1970-01-01 00:00:00.000133210,1755597925850,24.48,-44.08,2.08,777.0,768.0,820.0,861.0,836.0,33.333333333333336,-0.411,-0.637,0.65
1970-01-01 00:00:00.000133269,1755597925854,24.46,-44.11,2.09,,,,,,33.333333333333336,-0.413,-0.637,0.649
1970-01-01 00:00:00.000133298,1755597925856,24.47,-44.12,2.1,,,,,,34.48275862068966,-0.412,-0.636,0.65
1970-01-01 00:00:00.000133328,1755597925858,24.44,-44.12,2.11,,,,,,33.333333333333336,-0.412,-0.638,0.652
1970-01-01 00:00:00.000133357,1755597925860,24.47,-44.11,2.13,,,,,,34.48275862068966,-0.411,-0.638,0.652
1970-01-01 00:00:00.000133387,1755597925862,24.47,-44.12,2.12,,,,,,33.333333333333336,-0.41,-0.636,0.649
1970-01-01 00:00:00.000133416,1755597925864,24.44,-44.14,2.1,,,,,,34.48275862068966,-0.412,-0.636,0.65
1970-01-01 00:00:00.000133446,1755597925866,24.45,-44.13,2.11,,,,,,33.333333333333336,-0.413,-0.638,0.653
1970-01-01 00:00:00.000133475,1755597925868,24.48,-44.13,2.14,,,,,,34.48275862068966,-0.412,-0.638,0.652
1970-01-01 00:00:00.000133505,1755597925870,24.49,-44.15,2.15,,,,,,33.333333333333336,-0.41,-0.637,0.65
1970-01-01 00:00:00.000133534,1755597925873,24.44,-44.14,2.11,,,,,,34.48275862068966,-0.41,-0.637,0.652
1970-01-01 00:00:00.000133564,1755597925875,24.44,-44.12,2.1,,,,,,33.333333333333336,-0.412,-0.639,0.654
1970-01-01 00:00:00.000133593,1755597925877,24.46,-44.09,2.13,,,,,,34.48275862068966,-0.414,-0.637,0.65
1970-01-01 00:00:00.000133623,1755597925879,24.45,-44.12,2.14,,,,,,33.333333333333336,-0.413,-0.637,0.649
1970-01-01 00:00:00.000133652,1755597925881,24.44,-44.15,2.13,,,,,,34.48275862068966,-0.412,-0.638,0.652
1970-01-01 00:00:00.000133682,1755597925884,24.44,-44.12,2.14,,,,,,33.333333333333336,-0.41,-0.639,0.654
1970-01-01 00:00:00.000133711,1755597925886,24.45,-44.11,2.13,,,,,,34.48275862068966,-0.411,-0.638,0.652
1970-01-01 00:00:00.000133741,1755597925887,24.42,-44.12,2.12,,,,,,33.333333333333336,-0.413,-0.638,0.651
1970-01-01 00:00:00.000133771,1755597925889,24.42,-44.12,2.14,,,,,,33.333333333333336,-0.413,-0.639,0.652
1970-01-01 00:00:00.000133800,1755597925892,24.44,-44.11,2.17,,,,,,34.48275862068966,-0.411,-0.639,0.653
1970-01-01 00:00:00.000133830,1755597925894,24.41,-44.09,2.16,,,,,,33.333333333333336,-0.409,-0.638,0.652
1970-01-01 00:00:00.000133859,1755597925896,24.4,-44.11,2.15,,,,,,34.48275862068966,-0.41,-0.637,0.651
1970-01-01 00:00:00.000133889,1755597925898,24.4,-44.13,2.16,,,,,,33.333333333333336,-0.412,-0.637,0.653
1970-01-01 00:00:00.000133948,1755597925902,24.4,-44.08,2.18,,,,,,33.333333333333336,-0.411,-0.638,0.652
1970-01-01 00:00:00.000133977,1755597925903,24.4,-44.12,2.18,,,,,,34.48275862068966,-0.411,-0.637,0.65
1970-01-01 00:00:00.000134007,1755597925905,24.39,-44.16,2.15,,,,,,33.333333333333336,-0.412,-0.637,0.651
1970-01-01 00:00:00.000134036,1755597925907,24.38,-44.14,2.15,,,,,,34.48275862068966,-0.413,-0.639,0.654
1970-01-01 00:00:00.000134066,1755597925909,24.42,-44.12,2.18,,,,,,33.333333333333336,-0.412,-0.638,0.653
1970-01-01 00:00:00.000134095,1755597925912,24.41,-44.14,2.18,,,,,,34.48275862068966,-0.411,-0.637,0.65
1970-01-01 00:00:00.000134125,1755597925914,24.38,-44.16,2.15,,,,,,33.333333333333336,-0.411,-0.638,0.652
1970-01-01 00:00:00.000134154,1755597925916,24.38,-44.13,2.16,,,,,,34.48275862068966,-0.411,-0.636,0.655
1970-01-01 00:00:00.000134184,1755597925918,24.36,-44.13,2.14,,,,,,33.333333333333336,-0.412,-0.635,0.651
1970-01-01 00:00:00.000134213,1755597925919,24.32,-44.18,2.11,,,,,,34.48275862068966,-0.414,-0.636,0.649
1970-01-01 00:00:00.000134243,1755597925922,24.3,-44.22,2.11,,,,,,33.333333333333336,-0.414,-0.641,0.651
1970-01-01 00:00:00.000134272,1755597925924,24.3,-44.2,2.14,,,,,,34.48275862068966,-0.411,-0.644,0.655
1970-01-01 00:00:00.000134332,1755597925928,24.28,-44.15,2.13,,,,,,33.333333333333336,-0.408,-0.637,0.65
1970-01-01 00:00:00.000134361,1755597925930,24.27,-44.22,2.11,,,,,,34.48275862068966,-0.412,-0.637,0.65
1970-01-01 00:00:00.000134391,1755597925932,24.26,-44.24,2.12,,,,,,33.333333333333336,-0.413,-0.638,0.654
1970-01-01 00:00:00.000134420,1755597925934,24.28,-44.21,2.15,,,,,,34.48275862068966,-0.411,-0.64,0.656
1970-01-01 00:00:00.000134450,1755597925937,24.28,-44.18,2.16,,,,,,33.333333333333336,-0.408,-0.639,0.652
1970-01-01 00:00:00.000134509,1755597925940,24.26,-44.22,2.13,,,,,,33.333333333333336,-0.409,-0.64,0.653
1970-01-01 00:00:00.000134538,1755597925942,24.28,-44.17,2.15,,,,,,34.48275862068966,-0.41,-0.642,0.657
1970-01-01 00:00:00.000134568,1755597925945,24.31,-44.12,2.17,,,,,,33.333333333333336,-0.408,-0.639,0.654
1970-01-01 00:00:00.000134597,1755597925946,24.29,-44.14,2.14,,,,,,34.48275862068966,-0.408,-0.637,0.651
1970-01-01 00:00:00.000134656,1755597925950,24.31,-44.13,2.14,,,,,,34.48275862068966,-0.41,-0.639,0.655
1970-01-01 00:00:00.000134686,1755597925952,24.34,-44.11,2.15,,,,,,33.333333333333336,-0.409,-0.637,0.655
1970-01-01 00:00:00.000134715,1755597925955,24.33,-44.11,2.13,,,,,,34.48275862068966,-0.409,-0.636,0.651
1970-01-01 00:00:00.000134774,1755597925959,24.33,-44.16,2.13,,,,,,34.48275862068966,-0.412,-0.64,0.652
1970-01-01 00:00:00.000134804,1755597925960,24.36,-44.13,2.16,,,,,,33.333333333333336,-0.411,-0.64,0.653
1970-01-01 00:00:00.000134833,1755597925963,24.36,-44.13,2.13,,,,,,34.48275862068966,-0.409,-0.638,0.652
1970-01-01 00:00:00.000134863,1755597925965,24.34,-44.16,2.11,,,,,,33.333333333333336,-0.409,-0.64,0.653
1970-01-01 00:00:00.000134892,1755597925973,24.4,-44.15,2.13,,,,,,34.48275862068966,-0.411,-0.641,0.654
1970-01-01 00:00:00.000134951,1755597926032,24.37,-44.16,2.12,,,,,,34.48275862068966,-0.41,-0.637,0.652
1970-01-01 00:00:00.000134981,1755597926061,24.39,-44.18,2.11,,,,,,33.333333333333336,-0.411,-0.639,0.651
1970-01-01 00:00:00.000135010,1755597926091,24.41,-44.19,2.12,,,,,,34.48275862068966,-0.411,-0.641,0.652
1970-01-01 00:00:00.000135040,1755597926121,24.4,-44.19,2.12,,,,,,33.333333333333336,-0.41,-0.641,0.652
1970-01-01 00:00:00.000135069,1755597926150,24.38,-44.15,2.1,,,,,,34.48275862068966,-0.411,-0.639,0.652
1970-01-01 00:00:00.000135099,1755597926180,24.37,-44.14,2.1,,,,,,33.333333333333336,-0.412,-0.638,0.65
1970-01-01 00:00:00.000135128,1755597926210,24.38,-44.17,2.11,,,,,,34.48275862068966,-0.412,-0.639,0.651
1970-01-01 00:00:00.000135149,1755597926230,24.37,-44.18,2.12,,,,,,47.61904761904762,-0.41,-0.638,0.652
1970-01-01 00:00:00.000135178,1755597926259,24.34,-44.17,2.12,,,,,,34.48275862068966,-0.409,-0.64,0.654
1970-01-01 00:00:00.000135237,1755597926319,24.36,-44.11,2.13,,,,,,34.48275862068966,-0.409,-0.639,0.65
1970-01-01 00:00:00.000135267,1755597926348,24.35,-44.15,2.13,,,,,,33.333333333333336,-0.411,-0.639,0.649
1970-01-01 00:00:00.000135297,1755597926378,24.34,-44.17,2.14,,,,,,33.333333333333336,-0.411,-0.638,0.652
1970-01-01 00:00:00.000135356,1755597926437,24.4,-44.13,2.17,,,,,,33.333333333333336,-0.408,-0.638,0.653
1970-01-01 00:00:00.000135386,1755597926467,24.37,-44.13,2.14,,,,,,33.333333333333336,-0.407,-0.637,0.65
1970-01-01 00:00:00.000135415,1755597926496,24.34,-44.14,2.13,,,,,,34.48275862068966,-0.41,-0.639,0.651
1970-01-01 00:00:00.000135445,1755597926526,24.38,-44.13,2.15,,,,,,33.333333333333336,-0.411,-0.638,0.652
1970-01-01 00:00:00.000135474,1755597926556,24.39,-44.12,2.17,,,,,,34.48275862068966,-0.41,-0.638,0.651
1970-01-01 00:00:00.000135504,1755597926585,24.36,-44.14,2.15,,,,,,33.333333333333336,-0.41,-0.638,0.648
1970-01-01 00:00:00.000135533,1755597926615,24.35,-44.17,2.14,,,,,,34.48275862068966,-0.41,-0.639,0.649
1970-01-01 00:00:00.000135563,1755597926644,24.36,-44.17,2.15,,,,,,33.333333333333336,-0.411,-0.64,0.652
1970-01-01 00:00:00.000135593,1755597926674,24.36,-44.14,2.17,,,,,,33.333333333333336,-0.41,-0.638,0.65
1970-01-01 00:00:00.000135622,1755597926703,24.37,-44.14,2.17,,,,,,34.48275862068966,-0.41,-0.637,0.648
1970-01-01 00:00:00.000135652,1755597926733,24.35,-44.17,2.16,,,,,,33.333333333333336,-0.41,-0.637,0.649
1970-01-01 00:00:00.000135681,1755597926763,24.34,-44.17,2.16,,,,,,34.48275862068966,-0.412,-0.638,0.651
1970-01-01 00:00:00.000135711,1755597926792,24.37,-44.14,2.2,,,,,,33.333333333333336,-0.411,-0.639,0.65
1970-01-01 00:00:00.000135741,1755597926822,24.4,-44.14,2.22,,,,,,33.333333333333336,-0.409,-0.638,0.649
1970-01-01 00:00:00.000135770,1755597926852,24.35,-44.15,2.19,,,,,,34.48275862068966,-0.409,-0.637,0.649
1970-01-01 00:00:00.000135800,1755597926881,24.34,-44.17,2.17,,,,,,33.333333333333336,-0.411,-0.638,0.648
1970-01-01 00:00:00.000135859,1755597926940,24.38,-44.15,2.23,,,,,,34.48275862068966,-0.412,-0.639,0.65
1970-01-01 00:00:00.000135918,1755597926999,24.35,-44.16,2.22,,,,,,33.333333333333336,-0.408,-0.638,0.649
1970-01-01 00:00:00.000135947,1755597927029,24.35,-44.15,2.22,,,,,,34.48275862068966,-0.41,-0.638,0.65
1970-01-01 00:00:00.000135977,1755597927058,24.35,-44.15,2.23,,,,,,33.333333333333336,-0.412,-0.639,0.649
1970-01-01 00:00:00.000136007,1755597927088,24.35,-44.16,2.25,,,,,,33.333333333333336,-0.411,-0.638,0.649
1970-01-01 00:00:00.000136036,1755597927118,24.34,-44.15,2.25,,,,,,34.48275862068966,-0.409,-0.636,0.65
1970-01-01 00:00:00.000136066,1755597927147,24.32,-44.14,2.23,,,,,,33.333333333333336,-0.41,-0.637,0.652
1970-01-01 00:00:00.000136096,1755597927177,24.32,-44.14,2.24,,,,,,33.333333333333336,-0.411,-0.638,0.649
1970-01-01 00:00:00.000136126,1755597927206,24.32,-44.14,2.25,,,,,,33.333333333333336,-0.411,-0.637,0.648
1970-01-01 00:00:00.000136155,1755597927236,24.3,-44.17,2.23,,,,,,34.48275862068966,-0.41,-0.637,0.65
1970-01-01 00:00:00.000136214,1755597927295,24.34,-44.15,2.26,,,,,,34.48275862068966,-0.409,-0.639,0.65
1970-01-01 00:00:00.000136274,1755597927354,24.31,-44.16,2.2,,,,,,33.333333333333336,-0.41,-0.637,0.649
1970-01-01 00:00:00.000136303,1755597927384,24.3,-44.17,2.21,,,,,,34.48275862068966,-0.413,-0.639,0.648
1970-01-01 00:00:00.000136333,1755597927414,24.35,-44.17,2.26,,,,,,33.333333333333336,-0.413,-0.64,0.649
1970-01-01 00:00:00.000136362,1755597927443,24.36,-44.15,2.28,,,,,,34.48275862068966,-0.409,-0.638,0.649
1970-01-01 00:00:00.000136392,1755597927473,24.34,-44.14,2.25,,,,,,33.333333333333336,-0.409,-0.638,0.648
1970-01-01 00:00:00.000136421,1755597927502,24.32,-44.15,2.22,,,,,,34.48275862068966,-0.411,-0.638,0.649
1970-01-01 00:00:00.000136451,1755597927532,24.37,-44.15,2.26,,,,,,33.333333333333336,-0.412,-0.639,0.65
1970-01-01 00:00:00.000136480,1755597927562,24.37,-44.16,2.27,,,,,,34.48275862068966,-0.41,-0.637,0.647
1970-01-01 00:00:00.000136510,1755597927591,24.33,-44.18,2.25,,,,,,33.333333333333336,-0.411,-0.638,0.649
1970-01-01 00:00:00.000136539,1755597927620,24.35,-44.16,2.26,,,,,,34.48275862068966,-0.412,-0.639,0.651
1970-01-01 00:00:00.000136598,1755597927679,24.35,-44.2,2.27,,,,,,34.48275862068966,-0.41,-0.637,0.646
1970-01-01 00:00:00.000136628,1755597927709,24.31,-44.22,2.25,,,,,,33.333333333333336,-0.411,-0.638,0.65
1970-01-01 00:00:00.000136657,1755597927738,24.31,-44.18,2.25,,,,,,34.48275862068966,-0.411,-0.64,0.651
1970-01-01 00:00:00.000136687,1755597927768,24.34,-44.15,2.29,,,,,,33.333333333333336,-0.411,-0.639,0.649
1970-01-01 00:00:00.000136716,1755597927797,24.35,-44.19,2.28,,,,,,34.48275862068966,-0.409,-0.637,0.647
1970-01-01 00:00:00.000136746,1755597927827,24.29,-44.22,2.24,,,,,,33.333333333333336,-0.409,-0.637,0.648
1970-01-01 00:00:00.000136775,1755597927857,24.28,-44.22,2.24,,,,,,34.48275862068966,-0.411,-0.638,0.65
1970-01-01 00:00:00.000136825,1755597927906,24.32,-44.21,2.29,,,,,,33.333333333333336,-0.411,-0.639,0.65
1970-01-01 00:00:00.000136854,1755597927935,24.3,-44.22,2.27,,,,,,34.48275862068966,-0.408,-0.638,0.648
1970-01-01 00:00:00.000136913,1755597927995,24.28,-44.24,2.28,,,,,,34.48275862068966,-0.412,-0.642,0.651
1970-01-01 00:00:00.000136943,1755597928024,24.33,-44.2,2.31,,,,,,33.333333333333336,-0.409,-0.638,0.653
1970-01-01 00:00:00.000136973,1755597928054,24.31,-44.18,2.25,,,,,,33.333333333333336,-0.41,-0.637,0.651
1970-01-01 00:00:00.000137002,1755597928083,24.28,-44.22,2.24,,,,,,34.48275862068966,-0.414,-0.64,0.648
1970-01-01 00:00:00.000137032,1755597928113,24.33,-44.24,2.28,,,,,,33.333333333333336,-0.412,-0.639,0.65
1970-01-01 00:00:00.000137061,1755597928143,24.35,-44.23,2.29,,,,,,34.48275862068966,-0.41,-0.639,0.654
1970-01-01 00:00:00.000137091,1755597928172,24.31,-44.2,2.27,,,,,,33.333333333333336,-0.408,-0.638,0.652
1970-01-01 00:00:00.000137121,1755597928202,24.31,-44.21,2.27,,,,,,33.333333333333336,-0.408,-0.637,0.652
1970-01-01 00:00:00.000137180,1755597928262,24.33,-44.19,2.26,,,,,,33.333333333333336,-0.408,-0.639,0.654
1970-01-01 00:00:00.000137200,1755597928281,24.33,-44.17,2.27,,,,,,50.0,-0.407,-0.64,0.651
1970-01-01 00:00:00.000137230,1755597928311,24.34,-44.19,2.27,,,,,,33.333333333333336,-0.408,-0.64,0.652
1970-01-01 00:00:00.000137259,1755597928340,24.37,-44.21,2.28,,,,,,34.48275862068966,-0.408,-0.638,0.654
1970-01-01 00:00:00.000137288,1755597928370,24.39,-44.2,2.29,,,,,,34.48275862068966,-0.409,-0.637,0.651
1970-01-01 00:00:00.000137318,1755597928399,24.47,-44.3,2.31,,,,,,33.333333333333336,-0.41,-0.638,0.647
1970-01-01 00:00:00.000137347,1755597928428,24.57,-44.35,2.36,,,,,,34.48275862068966,-0.414,-0.641,0.652
1970-01-01 00:00:00.000137377,1755597928458,24.49,-44.27,2.34,,,,,,33.333333333333336,-0.411,-0.64,0.65
1970-01-01 00:00:00.000137406,1755597928487,24.41,-44.31,2.31,,,,,,34.48275862068966,-0.413,-0.641,0.646
1970-01-01 00:00:00.000137436,1755597928517,24.42,-44.34,2.34,,,,,,33.333333333333336,-0.416,-0.641,0.646
1970-01-01 00:00:00.000137495,1755597928576,24.33,-44.38,2.32,,,,,,33.333333333333336,-0.409,-0.64,0.649
1970-01-01 00:00:00.000137524,1755597928606,24.32,-44.4,2.31,,,,,,34.48275862068966,-0.41,-0.64,0.648
1970-01-01 00:00:00.000137554,1755597928635,24.28,-44.43,2.29,,,,,,33.333333333333336,-0.41,-0.64,0.649
1970-01-01 00:00:00.000137584,1755597928665,24.26,-44.43,2.29,,,,,,33.333333333333336,-0.408,-0.642,0.652
1970-01-01 00:00:00.000137614,1755597928695,24.28,-44.39,2.29,,,,,,33.333333333333336,-0.407,-0.64,0.651
1970-01-01 00:00:00.000137643,1755597928724,24.28,-44.41,2.27,,,,,,34.48275862068966,-0.409,-0.639,0.651
1970-01-01 00:00:00.000137673,1755597928754,24.28,-44.38,2.27,,,,,,33.333333333333336,-0.41,-0.643,0.65
1970-01-01 00:00:00.000137702,1755597928784,24.31,-44.34,2.29,,,,,,34.48275862068966,-0.409,-0.642,0.646
1970-01-01 00:00:00.000137732,1755597928813,24.31,-44.35,2.27,,,,,,33.333333333333336,-0.408,-0.642,0.648
1970-01-01 00:00:00.000137791,1755597928873,24.34,-44.27,2.28,,,,,,34.48275862068966,-0.408,-0.642,0.649
1970-01-01 00:00:00.000137821,1755597928902,24.34,-44.25,2.27,,,,,,33.333333333333336,-0.408,-0.639,0.65
1970-01-01 00:00:00.000137850,1755597928931,24.32,-44.23,2.25,,,,,,34.48275862068966,-0.408,-0.64,0.652
1970-01-01 00:00:00.000137880,1755597928961,24.37,-44.2,2.26,,,,,,33.333333333333336,-0.408,-0.639,0.65
1970-01-01 00:00:00.000137909,1755597928990,24.38,-44.22,2.26,,,,,,34.48275862068966,-0.41,-0.639,0.646
1970-01-01 00:00:00.000137939,1755597929020,24.37,-44.27,2.24,,,,,,33.333333333333336,-0.411,-0.64,0.646
1970-01-01 00:00:00.000137969,1755597929050,24.35,-44.31,2.24,,,,,,33.333333333333336,-0.411,-0.64,0.65
1970-01-01 00:00:00.000137998,1755597929080,24.38,-44.29,2.25,,,,,,34.48275862068966,-0.411,-0.641,0.652
1970-01-01 00:00:00.000138028,1755597929109,24.4,-44.27,2.27,,,,,,33.333333333333336,-0.411,-0.642,0.648
1970-01-01 00:00:00.000138058,1755597929139,24.36,-44.29,2.26,,,,,,33.333333333333336,-0.411,-0.641,0.646
1970-01-01 00:00:00.000138087,1755597929169,24.33,-44.32,2.25,,,,,,34.48275862068966,-0.411,-0.642,0.649
1970-01-01 00:00:00.000138117,1755597929198,24.36,-44.31,2.27,,,,,,33.333333333333336,-0.412,-0.642,0.65
1970-01-01 00:00:00.000138147,1755597929228,24.36,-44.3,2.28,,,,,,33.333333333333336,-0.411,-0.641,0.647
1970-01-01 00:00:00.000138176,1755597929258,24.32,-44.31,2.27,,,,,,34.48275862068966,-0.411,-0.64,0.646
1970-01-01 00:00:00.000138206,1755597929287,24.32,-44.33,2.27,,,,,,33.333333333333336,-0.411,-0.642,0.649
1970-01-01 00:00:00.000138235,1755597929316,24.32,-44.3,2.29,,,,,,34.48275862068966,-0.409,-0.641,0.651
1970-01-01 00:00:00.000138265,1755597929346,24.28,-44.27,2.28,,,,,,33.333333333333336,-0.409,-0.64,0.651
1970-01-01 00:00:00.000138294,1755597929376,24.27,-44.27,2.28,,,,,,34.48275862068966,-0.407,-0.639,0.648
1970-01-01 00:00:00.000138324,1755597929405,24.27,-44.3,2.28,,,,,,33.333333333333336,-0.406,-0.638,0.649
1970-01-01 00:00:00.000138354,1755597929435,24.27,-44.31,2.27,,,,,,33.333333333333336,-0.408,-0.64,0.652
1970-01-01 00:00:00.000138383,1755597929464,24.28,-44.29,2.29,,,,,,34.48275862068966,-0.41,-0.642,0.651
1970-01-01 00:00:00.000138442,1755597929523,24.29,-44.34,2.31,,,,,,34.48275862068966,-0.409,-0.641,0.649
1970-01-01 00:00:00.000138501,1755597929583,24.31,-44.33,2.34,,,,,,34.48275862068966,-0.408,-0.642,0.653
1970-01-01 00:00:00.000138531,1755597929612,24.35,-44.29,2.34,,,,,,33.333333333333336,-0.408,-0.641,0.653
1970-01-01 00:00:00.000138561,1755597929642,24.34,-44.25,2.32,,,,,,33.333333333333336,-0.408,-0.639,0.647
1970-01-01 00:00:00.000138590,1755597929672,24.34,-44.29,2.29,,,,,,34.48275862068966,-0.411,-0.638,0.646
1970-01-01 00:00:00.000138620,1755597929701,24.36,-44.33,2.28,,,,,,33.333333333333336,-0.412,-0.642,0.648
1970-01-01 00:00:00.000138649,1755597929731,24.38,-44.31,2.29,,,,,,34.48275862068966,-0.41,-0.642,0.649
1970-01-01 00:00:00.000138679,1755597929761,24.38,-44.27,2.29,,,,,,33.333333333333336,-0.409,-0.641,0.647
1970-01-01 00:00:00.000138709,1755597929790,24.36,-44.29,2.26,,,,,,33.333333333333336,-0.41,-0.639,0.647
1970-01-01 00:00:00.000138739,1755597929820,24.34,-44.31,2.24,,,,,,33.333333333333336,-0.411,-0.64,0.647
1970-01-01 00:00:00.000138768,1755597929850,24.36,-44.3,2.25,,,,,,34.48275862068966,-0.412,-0.642,0.648
1970-01-01 00:00:00.000138798,1755597929879,24.35,-44.26,2.27,,,,,,33.333333333333336,-0.411,-0.642,0.647
1970-01-01 00:00:00.000138857,1755597929938,24.32,-44.26,2.29,,,,,,33.333333333333336,-0.407,-0.643,0.649
1970-01-01 00:00:00.000138886,1755597929967,24.35,-44.25,2.31,,,,,,34.48275862068966,-0.409,-0.641,0.649
1970-01-01 00:00:00.000138916,1755597929997,24.28,-44.24,2.29,,,,,,33.333333333333336,-0.412,-0.64,0.644
1970-01-01 00:00:00.000138945,1755597930026,24.26,-44.31,2.33,,,,,,34.48275862068966,-0.412,-0.643,0.648
1970-01-01 00:00:00.000138975,1755597930056,24.35,-44.31,2.42,,,,,,33.333333333333336,-0.408,-0.642,0.653
1970-01-01 00:00:00.000139004,1755597930085,24.3,-44.26,2.4,,,,,,34.48275862068966,-0.405,-0.639,0.651
1970-01-01 00:00:00.000139034,1755597930115,24.23,-44.28,2.35,,,,,,33.333333333333336,-0.408,-0.639,0.647
1970-01-01 00:00:00.000139063,1755597930145,24.29,-44.33,2.37,,,,,,34.48275862068966,-0.411,-0.639,0.648
1970-01-01 00:00:00.000139093,1755597930174,24.35,-44.34,2.41,,,,,,33.333333333333336,-0.412,-0.639,0.652
1970-01-01 00:00:00.000139123,1755597930203,24.29,-44.29,2.39,,,,,,33.333333333333336,-0.409,-0.64,0.651
1970-01-01 00:00:00.000139152,1755597930233,24.29,-44.31,2.37,,,,,,34.48275862068966,-0.408,-0.641,0.647
1970-01-01 00:00:00.000139181,1755597930263,24.36,-44.34,2.38,,,,,,34.48275862068966,-0.41,-0.64,0.651
1970-01-01 00:00:00.000139211,1755597930292,24.35,-44.26,2.38,,,,,,33.333333333333336,-0.41,-0.641,0.653
1970-01-01 00:00:00.000139241,1755597930322,24.32,-44.23,2.37,,,,,,33.333333333333336,-0.411,-0.64,0.648
1970-01-01 00:00:00.000139270,1755597930352,24.33,-44.28,2.37,,,,,,34.48275862068966,-0.412,-0.64,0.646
1970-01-01 00:00:00.000139300,1755597930381,24.35,-44.32,2.38,,,,,,33.333333333333336,-0.412,-0.641,0.651
1970-01-01 00:00:00.000139330,1755597930411,24.31,-44.26,2.38,,,,,,33.333333333333336,-0.409,-0.641,0.652
1970-01-01 00:00:00.000139359,1755597930441,24.29,-44.27,2.38,,,,,,34.48275862068966,-0.408,-0.641,0.65
1970-01-01 00:00:00.000139389,1755597930470,24.31,-44.31,2.39,,,,,,33.333333333333336,-0.41,-0.642,0.652
1970-01-01 00:00:00.000139419,1755597930500,24.32,-44.29,2.41,,,,,,33.333333333333336,-0.41,-0.641,0.652
1970-01-01 00:00:00.000139448,1755597930529,24.29,-44.3,2.4,,,,,,34.48275862068966,-0.408,-0.64,0.65
1970-01-01 00:00:00.000139478,1755597930559,24.3,-44.33,2.4,,,,,,33.333333333333336,-0.41,-0.641,0.652
1970-01-01 00:00:00.000139507,1755597930588,24.31,-44.31,2.4,,,,,,34.48275862068966,-0.41,-0.64,0.651
1970-01-01 00:00:00.000139566,1755597930647,24.32,-44.34,2.43,,,,,,34.48275862068966,-0.411,-0.642,0.651
1970-01-01 00:00:00.000139596,1755597930677,24.35,-44.32,2.45,,,,,,33.333333333333336,-0.41,-0.641,0.653
1970-01-01 00:00:00.000139626,1755597930707,24.31,-44.29,2.44,,,,,,33.333333333333336,-0.409,-0.639,0.65
1970-01-01 00:00:00.000139646,1755597930727,24.3,-44.3,2.42,,,,,,50.0,-0.41,-0.64,0.648
1970-01-01 00:00:00.000139675,1755597930756,24.3,-44.34,2.43,,,,,,34.48275862068966,-0.412,-0.641,0.645
1970-01-01 00:00:00.000139705,1755597930786,24.32,-44.37,2.47,,,,,,33.333333333333336,-0.414,-0.642,0.648
1970-01-01 00:00:00.000139734,1755597930815,24.33,-44.35,2.51,,,,,,34.48275862068966,-0.411,-0.642,0.652
1970-01-01 00:00:00.000139764,1755597930845,24.33,-44.33,2.52,,,,,,33.333333333333336,-0.408,-0.639,0.651
1970-01-01 00:00:00.000139793,1755597930874,24.29,-44.33,2.48,,,,,,34.48275862068966,-0.409,-0.638,0.651
1970-01-01 00:00:00.000139822,1755597930904,24.27,-44.32,2.47,,,,,,34.48275862068966,-0.414,-0.643,0.653
1970-01-01 00:00:00.000139852,1755597930933,24.24,-44.21,2.5,,,,,,33.333333333333336,-0.412,-0.64,0.649
1970-01-01 00:00:00.000139881,1755597930963,24.26,-44.25,2.52,,,,,,34.48275862068966,-0.411,-0.638,0.649
1970-01-01 00:00:00.000139911,1755597930993,24.28,-44.3,2.52,,,,,,33.333333333333336,-0.411,-0.64,0.65
1970-01-01 00:00:00.000139941,1755597931022,24.23,-44.26,2.54,,,,,,33.333333333333336,-0.412,-0.641,0.65
1970-01-01 00:00:00.000139971,1755597931052,24.19,-44.23,2.56,,,,,,33.333333333333336,-0.409,-0.64,0.65
1970-01-01 00:00:00.000140000,1755597931081,24.21,-44.26,2.56,,,,,,34.48275862068966,-0.408,-0.638,0.652
1970-01-01 00:00:00.000140030,1755597931111,24.18,-44.22,2.52,,,,,,33.333333333333336,-0.41,-0.638,0.653
1970-01-01 00:00:00.000140059,1755597931140,24.17,-44.2,2.52,,,,,,34.48275862068966,-0.411,-0.639,0.65
1970-01-01 00:00:00.000140089,1755597931170,24.22,-44.22,2.56,,,,,,33.333333333333336,-0.411,-0.64,0.65
1970-01-01 00:00:00.000140118,1755597931200,24.24,-44.24,2.57,,,,,,34.48275862068966,-0.41,-0.638,0.652
1970-01-01 00:00:00.000140148,1755597931229,24.2,-44.21,2.55,,,,,,33.333333333333336,-0.408,-0.638,0.655
1970-01-01 00:00:00.000140178,1755597931259,24.2,-44.19,2.52,,,,,,33.333333333333336,-0.408,-0.638,0.653
1970-01-01 00:00:00.000140207,1755597931288,24.21,-44.18,2.53,,,,,,34.48275862068966,-0.411,-0.639,0.652
1970-01-01 00:00:00.000140236,1755597931318,24.21,-44.17,2.54,,,,,,34.48275862068966,-0.411,-0.639,0.651
1970-01-01 00:00:00.000140266,1755597931347,24.21,-44.18,2.54,,,,,,33.333333333333336,-0.412,-0.638,0.652
1970-01-01 00:00:00.000140296,1755597931377,24.21,-44.17,2.56,,,,,,33.333333333333336,-0.412,-0.639,0.653
1970-01-01 00:00:00.000140325,1755597931406,24.22,-44.16,2.58,,,,,,34.48275862068966,-0.411,-0.639,0.651
1970-01-01 00:00:00.000140355,1755597931436,24.23,-44.17,2.58,,,,,,33.333333333333336,-0.41,-0.638,0.649
1970-01-01 00:00:00.000140384,1755597931465,24.19,-44.21,2.55,,,,,,34.48275862068966,-0.409,-0.639,0.651
1970-01-01 00:00:00.000140414,1755597931495,24.2,-44.19,2.56,,,,,,33.333333333333336,-0.409,-0.64,0.655
1970-01-01 00:00:00.000140443,1755597931524,24.23,-44.15,2.57,,,,,,34.48275862068966,-0.409,-0.639,0.655
1970-01-01 00:00:00.000140473,1755597931554,24.2,-44.14,2.55,,,,,,33.333333333333336,-0.409,-0.638,0.652
1970-01-01 00:00:00.000140502,1755597931583,24.22,-44.15,2.56,,,,,,34.48275862068966,-0.411,-0.64,0.652
1970-01-01 00:00:00.000140532,1755597931613,24.23,-44.16,2.57,,,,,,33.333333333333336,-0.411,-0.639,0.651
1970-01-01 00:00:00.000140561,1755597931642,24.22,-44.18,2.57,,,,,,34.48275862068966,-0.41,-0.637,0.653
1970-01-01 00:00:00.000140591,1755597931672,24.22,-44.15,2.56,,,,,,33.333333333333336,-0.409,-0.637,0.654
1970-01-01 00:00:00.000140620,1755597931702,24.24,-44.14,2.55,,,,,,34.48275862068966,-0.41,-0.638,0.653
1970-01-01 00:00:00.000140650,1755597931731,24.22,-44.17,2.54,,,,,,33.333333333333336,-0.41,-0.639,0.651
1970-01-01 00:00:00.000140679,1755597931761,24.22,-44.18,2.56,,,,,,34.48275862068966,-0.411,-0.639,0.652
1970-01-01 00:00:00.000140709,1755597931790,24.23,-44.15,2.57,,,,,,33.333333333333336,-0.41,-0.638,0.653
1970-01-01 00:00:00.000140738,1755597931820,24.21,-44.16,2.55,,,,,,34.48275862068966,-0.409,-0.638,0.652
1970-01-01 00:00:00.000140768,1755597931850,24.22,-44.18,2.55,,,,,,33.333333333333336,-0.409,-0.639,0.652
1970-01-01 00:00:00.000140798,1755597931879,24.25,-44.2,2.56,,,,,,33.333333333333336,-0.41,-0.64,0.653
1970-01-01 00:00:00.000140828,1755597931908,24.24,-44.18,2.56,,,,,,33.333333333333336,-0.411,-0.64,0.653
1970-01-01 00:00:00.000140886,1755597931968,24.24,-44.18,2.57,,,,,,34.48275862068966,-0.41,-0.639,0.651
1970-01-01 00:00:00.000140916,1755597931997,24.23,-44.18,2.57,,,,,,33.333333333333336,-0.41,-0.638,0.652
1970-01-01 00:00:00.000140946,1755597932027,24.21,-44.17,2.56,,,,,,33.333333333333336,-0.41,-0.64,0.654
1970-01-01 00:00:00.000140976,1755597932057,24.24,-44.16,2.58,,,,,,33.333333333333336,-0.409,-0.641,0.654
1970-01-01 00:00:00.000141005,1755597932086,24.24,-44.15,2.58,,,,,,34.48275862068966,-0.408,-0.639,0.652
1970-01-01 00:00:00.000141035,1755597932116,24.21,-44.13,2.57,,,,,,33.333333333333336,-0.41,-0.639,0.653
1970-01-01 00:00:00.000141064,1755597932145,24.19,-44.13,2.57,,,,,,34.48275862068966,-0.411,-0.64,0.654
1970-01-01 00:00:00.000141093,1755597932174,24.26,-44.13,2.62,,,,,,34.48275862068966,-0.412,-0.641,0.653
1970-01-01 00:00:00.000141123,1755597932204,24.3,-44.17,2.64,,,,,,33.333333333333336,-0.41,-0.639,0.649
1970-01-01 00:00:00.000141152,1755597932234,24.25,-44.2,2.61,,,,,,34.48275862068966,-0.41,-0.639,0.653
1970-01-01 00:00:00.000141182,1755597932263,24.23,-44.17,2.61,,,,,,33.333333333333336,-0.411,-0.64,0.655
1970-01-01 00:00:00.000141211,1755597932293,24.25,-44.15,2.63,,,,,,34.48275862068966,-0.412,-0.64,0.653
1970-01-01 00:00:00.000141241,1755597932322,24.26,-44.13,2.66,,,,,,33.333333333333336,-0.412,-0.639,0.652
1970-01-01 00:00:00.000141271,1755597932352,24.22,-44.12,2.66,,,,,,33.333333333333336,-0.409,-0.638,0.652
1970-01-01 00:00:00.000141300,1755597932381,24.2,-44.13,2.64,,,,,,34.48275862068966,-0.408,-0.639,0.654
1970-01-01 00:00:00.000141330,1755597932411,24.21,-44.11,2.65,,,,,,33.333333333333336,-0.408,-0.639,0.655
1970-01-01 00:00:00.000141359,1755597932440,24.23,-44.09,2.65,,,,,,34.48275862068966,-0.41,-0.637,0.653
1970-01-01 00:00:00.000141389,1755597932470,24.24,-44.12,2.65,,,,,,33.333333333333336,-0.412,-0.636,0.651
1970-01-01 00:00:00.000141418,1755597932499,24.26,-44.15,2.66,,,,,,34.48275862068966,-0.412,-0.638,0.653
1970-01-01 00:00:00.000141448,1755597932529,24.26,-44.14,2.67,,,,,,33.333333333333336,-0.409,-0.638,0.655
1970-01-01 00:00:00.000141477,1755597932558,24.23,-44.12,2.65,,,,,,34.48275862068966,-0.41,-0.638,0.654
1970-01-01 00:00:00.000141507,1755597932588,24.24,-44.13,2.64,,,,,,33.333333333333336,-0.41,-0.637,0.652
1970-01-01 00:00:00.000141536,1755597932617,24.25,-44.15,2.65,,,,,,34.48275862068966,-0.412,-0.637,0.653
1970-01-01 00:00:00.000141566,1755597932647,24.24,-44.14,2.64,,,,,,33.333333333333336,-0.412,-0.637,0.655
1970-01-01 00:00:00.000141595,1755597932676,24.2,-44.12,2.63,,,,,,34.48275862068966,-0.411,-0.638,0.654
1970-01-01 00:00:00.000141655,1755597932736,24.22,-44.14,2.64,,,,,,33.333333333333336,-0.408,-0.639,0.657
1970-01-01 00:00:00.000141684,1755597932765,24.21,-44.12,2.63,,,,,,34.48275862068966,-0.409,-0.639,0.656
1970-01-01 00:00:00.000141714,1755597932795,24.25,-44.12,2.63,,,,,,33.333333333333336,-0.41,-0.638,0.655
1970-01-01 00:00:00.000141743,1755597932824,24.25,-44.14,2.63,,,,,,34.48275862068966,-0.41,-0.638,0.654
1970-01-01 00:00:00.000141773,1755597932854,24.24,-44.15,2.64,,,,,,33.333333333333336,-0.41,-0.638,0.654
1970-01-01 00:00:00.000141802,1755597932884,24.26,-44.14,2.64,,,,,,34.48275862068966,-0.409,-0.639,0.655
1970-01-01 00:00:00.000141832,1755597932913,24.27,-44.14,2.64,,,,,,33.333333333333336,-0.409,-0.64,0.654
1970-01-01 00:00:00.000141862,1755597932943,24.25,-44.14,2.63,,,,,,33.333333333333336,-0.409,-0.639,0.653
1970-01-01 00:00:00.000141891,1755597932973,24.24,-44.12,2.64,,,,,,34.48275862068966,-0.413,-0.64,0.653
1970-01-01 00:00:00.000141921,1755597933002,24.25,-44.13,2.66,,,,,,33.333333333333336,-0.413,-0.639,0.653
1970-01-01 00:00:00.000141950,1755597933031,24.28,-44.13,2.68,,,,,,34.48275862068966,-0.411,-0.639,0.654
1970-01-01 00:00:00.000141980,1755597933061,24.28,-44.13,2.68,,772.0,,,,33.333333333333336,-0.409,-0.639,0.652
1970-01-01 00:00:00.000142009,1755597933091,24.23,-44.14,2.65,,772.0,,,,34.48275862068966,-0.409,-0.639,0.652
