timestamp_ms,recv_timestamp_ms,pitch,roll,yaw,flex1,flex2,flex3,flex4,flex5,sampling_hz,accel_x,accel_y,accel_z
1970-01-01 00:00:00.000142039,1755597934619,24.23,-44.14,2.65,767.0,771.0,815.0,872.0,841.0,33.333333333333336,-0.412,-0.641,0.654
1970-01-01 00:00:00.000142068,1755597934622,24.26,-44.12,2.69,,,,,,34.48275862068966,-0.411,-0.638,0.651
1970-01-01 00:00:00.000142098,1755597934624,24.25,-44.13,2.23,,,,,,33.333333333333336,-0.409,-0.637,0.649
1970-01-01 00:00:00.000142127,1755597934625,24.22,-44.18,2.21,,,,,,34.48275862068966,-0.407,-0.638,0.652
1970-01-01 00:00:00.000142157,1755597934627,24.24,-44.17,2.21,,,,,,33.333333333333336,-0.406,-0.64,0.657
1970-01-01 00:00:00.000142186,1755597934630,24.25,-44.12,2.21,,,,,,34.48275862068966,-0.407,-0.64,0.656
1970-01-01 00:00:00.000142216,1755597934632,24.23,-44.12,2.18,,,,,,33.333333333333336,-0.41,-0.639,0.652
1970-01-01 00:00:00.000142245,1755597934634,24.24,-44.14,2.19,,,,,,34.48275862068966,-0.412,-0.64,0.649
1970-01-01 00:00:00.000142275,1755597934635,24.24,-44.16,2.22,,,,,,33.333333333333336,-0.412,-0.641,0.651
1970-01-01 00:00:00.000142304,1755597934638,24.23,-44.15,2.24,,,,,,34.48275862068966,-0.409,-0.64,0.654
1970-01-01 00:00:00.000142334,1755597934639,24.23,-44.13,2.23,,,,,,33.333333333333336,-0.408,-0.64,0.654
1970-01-01 00:00:00.000142363,1755597934641,24.22,-44.12,2.21,,,,,,34.48275862068966,-0.408,-0.639,0.651
1970-01-01 00:00:00.000142393,1755597934643,24.22,-44.14,2.21,,,,,,33.333333333333336,-0.41,-0.639,0.652
1970-01-01 00:00:00.000142422,1755597934645,24.23,-44.09,2.24,,,,,,34.48275862068966,-0.41,-0.64,0.653
1970-01-01 00:00:00.000142452,1755597934648,24.22,-44.08,2.24,,,,,,33.333333333333336,-0.407,-0.638,0.651
1970-01-01 00:00:00.000142511,1755597934652,24.2,-44.08,2.19,,,,,,33.333333333333336,-0.409,-0.638,0.653
1970-01-01 00:00:00.000142540,1755597934654,24.19,-44.09,2.2,,,,,,34.48275862068966,-0.409,-0.638,0.651
1970-01-01 00:00:00.000142570,1755597934656,24.22,-44.12,2.22,,,,,,33.333333333333336,-0.408,-0.639,0.653
1970-01-01 00:00:00.000142600,1755597934658,24.22,-44.09,2.21,,,,,,33.333333333333336,-0.407,-0.639,0.653
1970-01-01 00:00:00.000142630,1755597934661,24.2,-44.09,2.2,,,,,,33.333333333333336,-0.408,-0.639,0.652
1970-01-01 00:00:00.000142659,1755597934662,24.21,-44.07,2.21,,,,,,34.48275862068966,-0.41,-0.639,0.65
1970-01-01 00:00:00.000142689,1755597934664,24.21,-44.1,2.21,,,,,,33.333333333333336,-0.411,-0.639,0.648
1970-01-01 00:00:00.000142718,1755597934666,24.19,-44.15,2.2,,,,,,34.48275862068966,-0.41,-0.641,0.65
1970-01-01 00:00:00.000142748,1755597934669,24.23,-44.14,2.24,,,,,,33.333333333333336,-0.409,-0.642,0.653
1970-01-01 00:00:00.000142777,1755597934670,24.26,-44.12,2.26,,,,,,34.48275862068966,-0.408,-0.641,0.651
1970-01-01 00:00:00.000142807,1755597934673,24.21,-44.13,2.25,,,,,,33.333333333333336,-0.407,-0.64,0.65
1970-01-01 00:00:00.000142836,1755597934675,24.21,-44.13,2.25,,,,,,34.48275862068966,-0.409,-0.639,0.652
1970-01-01 00:00:00.000142866,1755597934678,24.22,-44.13,2.27,,,,,,33.333333333333336,-0.411,-0.64,0.652
1970-01-01 00:00:00.000142896,1755597934680,24.24,-44.12,2.3,,,,,,33.333333333333336,-0.41,-0.639,0.65
1970-01-01 00:00:00.000142925,1755597934683,24.23,-44.14,2.29,,,,,,34.48275862068966,-0.408,-0.638,0.648
1970-01-01 00:00:00.000142955,1755597934685,24.2,-44.15,2.26,,,,,,33.333333333333336,-0.41,-0.641,0.651
1970-01-01 00:00:00.000143014,1755597934689,24.21,-44.13,2.29,,,,,,33.333333333333336,-0.409,-0.639,0.65
1970-01-01 00:00:00.000143043,1755597934692,24.2,-44.13,2.28,,,,,,34.48275862068966,-0.408,-0.639,0.649
1970-01-01 00:00:00.000143073,1755597934694,24.2,-44.14,2.28,,,,,,33.333333333333336,-0.408,-0.638,0.649
1970-01-01 00:00:00.000143103,1755597934696,24.2,-44.14,2.27,,,,,,33.333333333333336,-0.41,-0.639,0.651
1970-01-01 00:00:00.000143162,1755597934700,24.24,-44.12,2.31,,,,,,33.333333333333336,-0.408,-0.638,0.651
1970-01-01 00:00:00.000143191,1755597934702,24.23,-44.16,2.28,,,,,,34.48275862068966,-0.408,-0.637,0.648
1970-01-01 00:00:00.000143220,1755597934705,24.18,-44.19,2.25,,,,,,34.48275862068966,-0.411,-0.639,0.65
1970-01-01 00:00:00.000143250,1755597934707,24.22,-44.17,2.29,,,,,,33.333333333333336,-0.411,-0.641,0.652
1970-01-01 00:00:00.000143279,1755597934709,24.26,-44.15,2.32,,,,,,34.48275862068966,-0.409,-0.64,0.651
1970-01-01 00:00:00.000143309,1755597934711,24.24,-44.16,2.31,,,,,,33.333333333333336,-0.408,-0.639,0.649
1970-01-01 00:00:00.000143338,1755597934713,24.22,-44.17,2.29,,,,,,34.48275862068966,-0.409,-0.64,0.648
1970-01-01 00:00:00.000143368,1755597934715,24.23,-44.21,2.29,,,,,,33.333333333333336,-0.41,-0.641,0.65
1970-01-01 00:00:00.000143397,1755597934717,24.22,-44.18,2.31,,,,,,34.48275862068966,-0.411,-0.641,0.652
1970-01-01 00:00:00.000143427,1755597934719,24.23,-44.15,2.32,,,,,,33.333333333333336,-0.41,-0.64,0.65
1970-01-01 00:00:00.000143456,1755597934721,24.23,-44.16,2.32,,,,,,34.48275862068966,-0.41,-0.64,0.648
1970-01-01 00:00:00.000143485,1755597934723,24.23,-44.21,2.32,,,,,,34.48275862068966,-0.411,-0.641,0.648
1970-01-01 00:00:00.000143515,1755597934725,24.22,-44.19,2.33,,,,,,33.333333333333336,-0.411,-0.642,0.651
1970-01-01 00:00:00.000143545,1755597934727,24.22,-44.17,2.34,,,,,,33.333333333333336,-0.409,-0.64,0.651
1970-01-01 00:00:00.000143574,1755597934729,24.23,-44.19,2.34,,,,,,34.48275862068966,-0.41,-0.639,0.649
1970-01-01 00:00:00.000143604,1755597934731,24.19,-44.2,2.34,,,,,,33.333333333333336,-0.409,-0.64,0.649
1970-01-01 00:00:00.000143634,1755597934733,24.18,-44.19,2.37,,,,,,33.333333333333336,-0.409,-0.641,0.652
1970-01-01 00:00:00.000143663,1755597934744,24.21,-44.17,2.41,,,,,,34.48275862068966,-0.408,-0.639,0.651
1970-01-01 00:00:00.000143693,1755597934774,24.17,-44.15,2.42,,,,,,33.333333333333336,-0.408,-0.638,0.65
1970-01-01 00:00:00.000143722,1755597934804,24.14,-44.18,2.41,,,,,,34.48275862068966,-0.409,-0.639,0.65
1970-01-01 00:00:00.000143752,1755597934833,24.18,-44.19,2.43,,,,,,33.333333333333336,-0.409,-0.64,0.651
1970-01-01 00:00:00.000143781,1755597934862,24.17,-44.16,2.45,,,,,,34.48275862068966,-0.41,-0.641,0.65
1970-01-01 00:00:00.000143811,1755597934892,24.16,-44.17,2.45,,,,,,33.333333333333336,-0.407,-0.639,0.65
1970-01-01 00:00:00.000143840,1755597934922,24.16,-44.18,2.45,,,,,,34.48275862068966,-0.407,-0.639,0.651
1970-01-01 00:00:00.000143870,1755597934951,24.17,-44.18,2.44,,,,,,33.333333333333336,-0.408,-0.638,0.652
1970-01-01 00:00:00.000143899,1755597934980,24.15,-44.17,2.42,,,,,,34.48275862068966,-0.409,-0.637,0.651
1970-01-01 00:00:00.000143958,1755597935040,24.18,-44.18,2.42,,,,,,34.48275862068966,-0.41,-0.639,0.65
1970-01-01 00:00:00.000143988,1755597935069,24.18,-44.17,2.43,,,,,,33.333333333333336,-0.409,-0.639,0.65
1970-01-01 00:00:00.000144017,1755597935099,24.18,-44.16,2.44,,,,,,34.48275862068966,-0.41,-0.64,0.65
1970-01-01 00:00:00.000144067,1755597935148,24.16,-44.15,2.46,,,,,,33.333333333333336,-0.411,-0.64,0.649
1970-01-01 00:00:00.000144096,1755597935178,24.15,-44.16,2.47,,,,,,34.48275862068966,-0.41,-0.639,0.649
1970-01-01 00:00:00.000144126,1755597935207,24.16,-44.19,2.48,,,,,,33.333333333333336,-0.409,-0.638,0.65
1970-01-01 00:00:00.000144156,1755597935237,24.14,-44.19,2.47,,,,,,33.333333333333336,-0.409,-0.639,0.651
1970-01-01 00:00:00.000144185,1755597935266,24.14,-44.18,2.46,,,,,,34.48275862068966,-0.409,-0.639,0.651
1970-01-01 00:00:00.000144215,1755597935296,24.14,-44.15,2.48,,,,,,33.333333333333336,-0.411,-0.638,0.651
1970-01-01 00:00:00.000144244,1755597935325,24.14,-44.17,2.48,,,,,,34.48275862068966,-0.411,-0.638,0.65
1970-01-01 00:00:00.000144274,1755597935355,24.13,-44.18,2.49,,,,,,33.333333333333336,-0.409,-0.639,0.65
1970-01-01 00:00:00.000144303,1755597935385,24.17,-44.18,2.51,,,,,,34.48275862068966,-0.407,-0.639,0.651
1970-01-01 00:00:00.000144333,1755597935414,24.17,-44.18,2.5,,,,,,33.333333333333336,-0.407,-0.638,0.652
1970-01-01 00:00:00.000144363,1755597935444,24.14,-44.18,2.47,,,,,,33.333333333333336,-0.409,-0.637,0.652
1970-01-01 00:00:00.000144392,1755597935473,24.15,-44.15,2.48,,,,,,34.48275862068966,-0.412,-0.639,0.652
1970-01-01 00:00:00.000144421,1755597935503,24.18,-44.14,2.53,,,,,,34.48275862068966,-0.41,-0.641,0.65
1970-01-01 00:00:00.000144451,1755597935532,24.19,-44.15,2.54,,,,,,33.333333333333336,-0.407,-0.639,0.65
1970-01-01 00:00:00.000144480,1755597935562,24.17,-44.13,2.52,,,,,,34.48275862068966,-0.407,-0.638,0.652
1970-01-01 00:00:00.000144510,1755597935591,24.18,-44.12,2.51,,,,,,33.333333333333336,-0.407,-0.637,0.653
1970-01-01 00:00:00.000144539,1755597935621,24.19,-44.15,2.5,,,,,,34.48275862068966,-0.41,-0.637,0.65
1970-01-01 00:00:00.000144569,1755597935650,24.2,-44.2,2.5,,,,,,33.333333333333336,-0.41,-0.639,0.649
1970-01-01 00:00:00.000144628,1755597935710,24.22,-44.14,2.52,,,,,,34.48275862068966,-0.405,-0.638,0.654
1970-01-01 00:00:00.000144658,1755597935739,24.18,-44.15,2.47,,,,,,33.333333333333336,-0.407,-0.638,0.65
1970-01-01 00:00:00.000144687,1755597935769,24.19,-44.19,2.47,,,,,,34.48275862068966,-0.412,-0.639,0.646
1970-01-01 00:00:00.000144717,1755597935798,24.23,-44.21,2.52,,,,,,33.333333333333336,-0.414,-0.64,0.649
1970-01-01 00:00:00.000144746,1755597935827,24.22,-44.19,2.54,,,,,,34.48275862068966,-0.409,-0.639,0.653
1970-01-01 00:00:00.000144776,1755597935857,24.21,-44.16,2.53,,,,,,33.333333333333336,-0.405,-0.639,0.652
1970-01-01 00:00:00.000144805,1755597935887,24.23,-44.14,2.52,,,,,,34.48275862068966,-0.408,-0.639,0.648
1970-01-01 00:00:00.000144835,1755597935916,24.22,-44.15,2.51,,,,,,33.333333333333336,-0.413,-0.639,0.648
1970-01-01 00:00:00.000144865,1755597935946,24.24,-44.14,2.54,,,,,,33.333333333333336,-0.412,-0.638,0.651
1970-01-01 00:00:00.000144894,1755597935975,24.25,-44.14,2.55,,,,,,34.48275862068966,-0.409,-0.637,0.651
1970-01-01 00:00:00.000144923,1755597936005,24.22,-44.17,2.52,,,,,,34.48275862068966,-0.407,-0.639,0.651
1970-01-01 00:00:00.000144953,1755597936034,24.24,-44.15,2.54,,,,,,33.333333333333336,-0.407,-0.64,0.652
1970-01-01 00:00:00.000144982,1755597936064,24.25,-44.13,2.55,,,,,,34.48275862068966,-0.408,-0.639,0.652
1970-01-01 00:00:00.000145012,1755597936093,24.21,-44.12,2.53,,,,,,33.333333333333336,-0.409,-0.638,0.652
1970-01-01 00:00:00.000145041,1755597936123,24.22,-44.11,2.54,,,,,,34.48275862068966,-0.411,-0.638,0.65
1970-01-01 00:00:00.000145071,1755597936152,24.25,-44.13,2.57,,,,,,33.333333333333336,-0.411,-0.638,0.648
1970-01-01 00:00:00.000145100,1755597936181,24.22,-44.17,2.55,,,,,,34.48275862068966,-0.41,-0.639,0.651
1970-01-01 00:00:00.000145130,1755597936211,24.2,-44.17,2.55,,,,,,33.333333333333336,-0.408,-0.639,0.654
1970-01-01 00:00:00.000145159,1755597936241,24.22,-44.12,2.55,,,,,,34.48275862068966,-0.409,-0.638,0.654
1970-01-01 00:00:00.000145189,1755597936270,24.22,-44.1,2.55,,,,,,33.333333333333336,-0.41,-0.638,0.651
1970-01-01 00:00:00.000145218,1755597936300,24.21,-44.1,2.55,,,,,,34.48275862068966,-0.41,-0.638,0.649
1970-01-01 00:00:00.000145248,1755597936329,24.2,-44.13,2.55,,,,,,33.333333333333336,-0.41,-0.638,0.65
1970-01-01 00:00:00.000145277,1755597936359,24.2,-44.16,2.55,,,,,,34.48275862068966,-0.409,-0.639,0.652
1970-01-01 00:00:00.000145307,1755597936388,24.2,-44.14,2.56,,,,,,33.333333333333336,-0.408,-0.639,0.653
1970-01-01 00:00:00.000145337,1755597936418,24.2,-44.13,2.56,,,,,,33.333333333333336,-0.406,-0.637,0.653
1970-01-01 00:00:00.000145366,1755597936447,24.18,-44.12,2.53,,,,,,34.48275862068966,-0.407,-0.636,0.653
1970-01-01 00:00:00.000145395,1755597936477,24.15,-44.13,2.5,,,,,,34.48275862068966,-0.408,-0.637,0.651
1970-01-01 00:00:00.000145425,1755597936506,24.15,-44.16,2.49,,,,,,33.333333333333336,-0.409,-0.638,0.652
1970-01-01 00:00:00.000145454,1755597936536,24.15,-44.15,2.5,,,,,,34.48275862068966,-0.409,-0.639,0.654
1970-01-01 00:00:00.000145484,1755597936565,24.14,-44.1,2.5,,,,,,33.333333333333336,-0.409,-0.639,0.653
1970-01-01 00:00:00.000145513,1755597936595,24.13,-44.12,2.49,,,,,,34.48275862068966,-0.409,-0.639,0.65
1970-01-01 00:00:00.000145543,1755597936625,24.14,-44.16,2.49,,,,,,33.333333333333336,-0.409,-0.639,0.651
1970-01-01 00:00:00.000145563,1755597936645,24.12,-44.17,2.5,,,,,,50.0,-0.408,-0.639,0.654
1970-01-01 00:00:00.000145613,1755597936694,24.14,-44.08,2.51,,,,,,50.0,-0.404,-0.64,0.658
1970-01-01 00:00:00.000145643,1755597936724,24.16,-44.06,2.5,,,,,,33.333333333333336,-0.406,-0.638,0.653
1970-01-01 00:00:00.000145673,1755597936754,24.14,-44.09,2.49,,,,,,33.333333333333336,-0.409,-0.639,0.652
1970-01-01 00:00:00.000145702,1755597936783,24.15,-44.11,2.52,,,,,,34.48275862068966,-0.408,-0.639,0.654
1970-01-01 00:00:00.000145731,1755597936813,24.15,-44.12,2.53,,,,,,34.48275862068966,-0.405,-0.639,0.655
1970-01-01 00:00:00.000145761,1755597936842,24.15,-44.12,2.52,,,,,,33.333333333333336,-0.404,-0.64,0.654
1970-01-01 00:00:00.000145790,1755597936872,24.16,-44.14,2.53,,,,,,34.48275862068966,-0.405,-0.64,0.653
1970-01-01 00:00:00.000145820,1755597936901,24.16,-44.15,2.53,,,,,,33.333333333333336,-0.407,-0.64,0.653
1970-01-01 00:00:00.000145850,1755597936931,24.13,-44.14,2.53,,,,,,33.333333333333336,-0.407,-0.639,0.654
1970-01-01 00:00:00.000145879,1755597936960,24.13,-44.12,2.55,,,,,,34.48275862068966,-0.406,-0.64,0.655
1970-01-01 00:00:00.000145909,1755597936990,24.16,-44.12,2.56,,,,,,33.333333333333336,-0.405,-0.638,0.653
1970-01-01 00:00:00.000145938,1755597937019,24.12,-44.14,2.53,,,,,,34.48275862068966,-0.406,-0.639,0.652
1970-01-01 00:00:00.000145968,1755597937049,24.12,-44.15,2.52,,,,,,33.333333333333336,-0.408,-0.64,0.653
1970-01-01 00:00:00.000145997,1755597937079,24.14,-44.12,2.55,,,,,,34.48275862068966,-0.409,-0.64,0.652
1970-01-01 00:00:00.000146027,1755597937108,24.14,-44.13,2.55,,,,,,33.333333333333336,-0.408,-0.639,0.651
1970-01-01 00:00:00.000146086,1755597937168,24.12,-44.16,2.54,,,,,,34.48275862068966,-0.407,-0.638,0.652
1970-01-01 00:00:00.000146116,1755597937197,24.11,-44.15,2.54,,,,,,33.333333333333336,-0.407,-0.64,0.653
1970-01-01 00:00:00.000146146,1755597937227,24.12,-44.13,2.55,,,,,,33.333333333333336,-0.407,-0.638,0.65
1970-01-01 00:00:00.000146175,1755597937256,24.12,-44.15,2.54,,,,,,34.48275862068966,-0.407,-0.639,0.651
1970-01-01 00:00:00.000146205,1755597937286,24.11,-44.17,2.53,,,,,,33.333333333333336,-0.407,-0.64,0.651
1970-01-01 00:00:00.000146234,1755597937315,24.12,-44.15,2.55,,,,,,34.48275862068966,-0.407,-0.64,0.651
1970-01-01 00:00:00.000146263,1755597937345,24.13,-44.14,2.56,,,,,,34.48275862068966,-0.406,-0.639,0.651
1970-01-01 00:00:00.000146293,1755597937374,24.12,-44.16,2.54,,,,,,33.333333333333336,-0.407,-0.638,0.65
1970-01-01 00:00:00.000146322,1755597937404,24.12,-44.18,2.53,,,,,,34.48275862068966,-0.408,-0.639,0.65
1970-01-01 00:00:00.000146352,1755597937433,24.14,-44.19,2.56,,,,,,33.333333333333336,-0.408,-0.641,0.65
1970-01-01 00:00:00.000146381,1755597937462,24.15,-44.19,2.57,,,,,,34.48275862068966,-0.406,-0.64,0.652
1970-01-01 00:00:00.000146411,1755597937492,24.13,-44.17,2.54,,,,,,33.333333333333336,-0.405,-0.638,0.652
1970-01-01 00:00:00.000146440,1755597937521,24.1,-44.18,2.51,,,,,,34.48275862068966,-0.407,-0.638,0.65
1970-01-01 00:00:00.000146470,1755597937551,24.11,-44.21,2.52,,,,,,33.333333333333336,-0.41,-0.64,0.65
1970-01-01 00:00:00.000146490,1755597937571,24.13,-44.23,2.54,,,,,,50.0,-0.41,-0.642,0.651
1970-01-01 00:00:00.000146519,1755597937601,24.15,-44.21,2.56,,,,,,34.48275862068966,-0.406,-0.641,0.651
1970-01-01 00:00:00.000146549,1755597937630,24.11,-44.23,2.52,,,,,,33.333333333333336,-0.405,-0.639,0.651
1970-01-01 00:00:00.000146608,1755597937689,24.08,-44.18,2.51,,,,,,33.333333333333336,-0.41,-0.64,0.648
1970-01-01 00:00:00.000146638,1755597937719,24.04,-44.21,2.5,,,,,,33.333333333333336,-0.407,-0.64,0.647
1970-01-01 00:00:00.000146727,1755597937808,24.02,-44.18,2.51,,,,,,33.333333333333336,-0.405,-0.641,0.652
1970-01-01 00:00:00.000146756,1755597937837,24.02,-44.18,2.52,,,,,,34.48275862068966,-0.406,-0.641,0.65
1970-01-01 00:00:00.000146786,1755597937867,24.03,-44.21,2.53,,,,,,33.333333333333336,-0.407,-0.641,0.65
1970-01-01 00:00:00.000146815,1755597937896,24.03,-44.19,2.55,,,,,,34.48275862068966,-0.406,-0.641,0.653
1970-01-01 00:00:00.000146845,1755597937926,24.04,-44.15,2.56,,,,,,33.333333333333336,-0.405,-0.64,0.653
1970-01-01 00:00:00.000146874,1755597937955,24.03,-44.15,2.56,,,,,,34.48275862068966,-0.405,-0.64,0.649
1970-01-01 00:00:00.000146904,1755597937985,24.04,-44.2,2.56,,,,,,33.333333333333336,-0.406,-0.641,0.65
1970-01-01 00:00:00.000146933,1755597938014,24.06,-44.2,2.59,,,,,,34.48275862068966,-0.406,-0.638,0.653
1970-01-01 00:00:00.000146992,1755597938073,24.03,-44.16,2.56,,,,,,34.48275862068966,-0.407,-0.639,0.649
1970-01-01 00:00:00.000147022,1755597938103,24.05,-44.21,2.56,,,,,,33.333333333333336,-0.407,-0.64,0.649
1970-01-01 00:00:00.000147051,1755597938132,24.05,-44.22,2.56,,,,,,34.48275862068966,-0.406,-0.64,0.652
1970-01-01 00:00:00.000147081,1755597938162,24.04,-44.2,2.56,,,,,,33.333333333333336,-0.406,-0.64,0.653
1970-01-01 00:00:00.000147110,1755597938191,24.07,-44.22,2.57,,,,,,34.48275862068966,-0.405,-0.638,0.65
1970-01-01 00:00:00.000147140,1755597938221,24.07,-44.24,2.57,,,,,,33.333333333333336,-0.405,-0.638,0.651
1970-01-01 00:00:00.000147169,1755597938251,24.05,-44.24,2.55,,,,,,34.48275862068966,-0.407,-0.642,0.652
1970-01-01 00:00:00.000147189,1755597938271,24.05,-44.24,2.55,,,,,,50.0,-0.409,-0.644,0.651
1970-01-01 00:00:00.000147248,1755597938330,24.05,-44.24,2.58,,,,,,34.48275862068966,-0.405,-0.64,0.65
1970-01-01 00:00:00.000147278,1755597938359,24.02,-44.24,2.55,,,,,,33.333333333333336,-0.405,-0.642,0.653
1970-01-01 00:00:00.000147308,1755597938389,24.04,-44.22,2.57,,,,,,33.333333333333336,-0.407,-0.643,0.653
1970-01-01 00:00:00.000147337,1755597938418,24.06,-44.2,2.59,,,,,,34.48275862068966,-0.408,-0.641,0.649
1970-01-01 00:00:00.000147396,1755597938477,24.05,-44.26,2.59,,,,,,34.48275862068966,-0.405,-0.639,0.651
1970-01-01 00:00:00.000147426,1755597938507,24.07,-44.25,2.59,,,,,,33.333333333333336,-0.405,-0.638,0.656
1970-01-01 00:00:00.000147455,1755597938536,24.06,-44.22,2.57,,,,,,34.48275862068966,-0.404,-0.637,0.652
1970-01-01 00:00:00.000147485,1755597938566,24.03,-44.24,2.53,,,,,,33.333333333333336,-0.407,-0.642,0.645
1970-01-01 00:00:00.000147514,1755597938596,24.06,-44.31,2.56,,,,,,34.48275862068966,-0.408,-0.644,0.647
1970-01-01 00:00:00.000147603,1755597938684,24.01,-44.24,2.51,,,,,,33.333333333333336,-0.406,-0.641,0.648
1970-01-01 00:00:00.000147632,1755597938714,24.01,-44.3,2.52,,,,,,34.48275862068966,-0.41,-0.641,0.643
1970-01-01 00:00:00.000147691,1755597938773,23.96,-44.4,2.51,,,,,,34.48275862068966,-0.404,-0.642,0.651
1970-01-01 00:00:00.000147721,1755597938802,24.0,-44.4,2.52,,,,,,33.333333333333336,-0.401,-0.644,0.655
1970-01-01 00:00:00.000147750,1755597938832,24.07,-44.37,2.53,,,,,,34.48275862068966,-0.398,-0.643,0.656
1970-01-01 00:00:00.000147780,1755597938861,24.13,-44.39,2.51,,,,,,33.333333333333336,-0.4,-0.642,0.653
1970-01-01 00:00:00.000147809,1755597938891,24.1,-44.39,2.47,,,,,,34.48275862068966,-0.405,-0.641,0.648
1970-01-01 00:00:00.000147868,1755597938950,24.13,-44.44,2.48,,,,,,34.48275862068966,-0.407,-0.645,0.651
1970-01-01 00:00:00.000147898,1755597938979,24.17,-44.4,2.51,,,,,,33.333333333333336,-0.403,-0.643,0.65
1970-01-01 00:00:00.000147927,1755597939009,24.09,-44.41,2.43,,,,,,34.48275862068966,-0.402,-0.642,0.649
1970-01-01 00:00:00.000147957,1755597939038,24.06,-44.43,2.39,,,,,,33.333333333333336,-0.406,-0.644,0.65
1970-01-01 00:00:00.000147987,1755597939068,24.12,-44.42,2.43,,,,,,33.333333333333336,-0.409,-0.645,0.649
1970-01-01 00:00:00.000148016,1755597939098,24.1,-44.4,2.44,,,,,,34.48275862068966,-0.406,-0.646,0.649
1970-01-01 00:00:00.000148046,1755597939127,24.12,-44.39,2.44,,,,,,33.333333333333336,-0.4,-0.645,0.649
1970-01-01 00:00:00.000148075,1755597939157,24.16,-44.44,2.41,,,,,,34.48275862068966,-0.399,-0.642,0.648
1970-01-01 00:00:00.000148105,1755597939186,24.13,-44.46,2.37,,,,,,33.333333333333336,-0.405,-0.644,0.648
1970-01-01 00:00:00.000148134,1755597939216,24.15,-44.47,2.39,,,,,,34.48275862068966,-0.41,-0.647,0.647
1970-01-01 00:00:00.000148164,1755597939245,24.2,-44.47,2.45,,,,,,33.333333333333336,-0.407,-0.645,0.647
1970-01-01 00:00:00.000148193,1755597939275,24.17,-44.5,2.44,,,,,,34.48275862068966,-0.404,-0.644,0.648
1970-01-01 00:00:00.000148252,1755597939334,24.09,-44.5,2.35,,,,,,34.48275862068966,-0.403,-0.646,0.649
1970-01-01 00:00:00.000148282,1755597939363,24.1,-44.49,2.38,,,,,,33.333333333333336,-0.407,-0.649,0.648
1970-01-01 00:00:00.000148311,1755597939393,24.09,-44.49,2.41,,,,,,34.48275862068966,-0.406,-0.648,0.646
1970-01-01 00:00:00.000148341,1755597939423,24.07,-44.49,2.41,,,,,,33.333333333333336,-0.404,-0.647,0.647
1970-01-01 00:00:00.000148371,1755597939452,24.05,-44.48,2.4,,,,,,33.333333333333336,-0.405,-0.648,0.649
1970-01-01 00:00:00.000148400,1755597939482,24.04,-44.45,2.41,,,,,,34.48275862068966,-0.406,-0.648,0.648
1970-01-01 00:00:00.000148430,1755597939511,23.61,-44.44,2.44,,,,,,33.333333333333336,-0.406,-0.648,0.646
1970-01-01 00:00:00.000148489,1755597939570,23.57,-44.48,2.42,,,,,,33.333333333333336,-0.405,-0.646,0.646
1970-01-01 00:00:00.000148518,1755597939600,23.58,-44.47,2.44,,,,,,34.48275862068966,-0.404,-0.647,0.648
1970-01-01 00:00:00.000148548,1755597939629,23.59,-44.47,2.45,,,,,,33.333333333333336,-0.404,-0.646,0.649
1970-01-01 00:00:00.000148578,1755597939659,23.58,-44.48,2.45,,,,,,33.333333333333336,-0.403,-0.646,0.648
1970-01-01 00:00:00.000148607,1755597939689,23.56,-44.48,2.45,,,,,,34.48275862068966,-0.403,-0.646,0.648
1970-01-01 00:00:00.000148637,1755597939718,23.58,-44.49,2.45,,,,,,33.333333333333336,-0.403,-0.646,0.649
1970-01-01 00:00:00.000148666,1755597939748,23.59,-44.49,2.46,,,,,,34.48275862068966,-0.403,-0.646,0.649
1970-01-01 00:00:00.000148696,1755597939777,23.57,-44.49,2.45,,,,,,33.333333333333336,-0.402,-0.647,0.65
1970-01-01 00:00:00.000148726,1755597939807,23.61,-44.48,2.47,,,,,,33.333333333333336,-0.4,-0.647,0.652
1970-01-01 00:00:00.000148755,1755597939836,23.66,-44.47,2.47,,,,,,34.48275862068966,-0.399,-0.644,0.65
1970-01-01 00:00:00.000148784,1755597939866,23.66,-44.5,2.42,,,,,,34.48275862068966,-0.402,-0.644,0.648
1970-01-01 00:00:00.000148814,1755597939895,23.64,-44.52,2.41,,,,,,33.333333333333336,-0.405,-0.646,0.65
1970-01-01 00:00:00.000148844,1755597939925,23.67,-44.48,2.45,,,,,,33.333333333333336,-0.404,-0.646,0.649
1970-01-01 00:00:00.000148873,1755597939955,23.68,-44.48,2.45,,,,,,34.48275862068966,-0.403,-0.644,0.648
1970-01-01 00:00:00.000148903,1755597939984,23.64,-44.5,2.41,,,,,,33.333333333333336,-0.402,-0.644,0.649
1970-01-01 00:00:00.000148932,1755597940014,23.64,-44.51,2.4,,,,,,34.48275862068966,-0.403,-0.647,0.651
1970-01-01 00:00:00.000148962,1755597940043,23.7,-44.48,2.44,,,,,,33.333333333333336,-0.405,-0.647,0.648
1970-01-01 00:00:00.000148991,1755597940073,23.71,-44.49,2.45,,,,,,34.48275862068966,-0.405,-0.646,0.646
1970-01-01 00:00:00.000149021,1755597940103,23.65,-44.5,2.44,,,,,,33.333333333333336,-0.404,-0.645,0.646
1970-01-01 00:00:00.000149051,1755597940132,23.64,-44.53,2.43,,,,,,33.333333333333336,-0.403,-0.644,0.647
1970-01-01 00:00:00.000149081,1755597940162,23.67,-44.56,2.43,,,,,,33.333333333333336,-0.404,-0.646,0.648
1970-01-01 00:00:00.000149110,1755597940191,23.65,-44.53,2.45,,,,,,34.48275862068966,-0.406,-0.649,0.648
1970-01-01 00:00:00.000149139,1755597940221,23.66,-44.51,2.47,,,,,,34.48275862068966,-0.404,-0.649,0.645
1970-01-01 00:00:00.000149169,1755597940250,23.68,-44.53,2.49,,,,,,33.333333333333336,-0.402,-0.647,0.645
1970-01-01 00:00:00.000149199,1755597940281,23.63,-44.52,2.47,,,,,,33.333333333333336,-0.402,-0.646,0.649
1970-01-01 00:00:00.000149228,1755597940310,23.62,-44.5,2.47,,,,,,34.48275862068966,-0.403,-0.647,0.648
1970-01-01 00:00:00.000149258,1755597940339,23.68,-44.49,2.52,,,,,,33.333333333333336,-0.404,-0.646,0.646
1970-01-01 00:00:00.000149287,1755597940369,23.69,-44.5,2.52,,,,,,34.48275862068966,-0.402,-0.644,0.647
1970-01-01 00:00:00.000149317,1755597940398,23.65,-44.51,2.49,,,,,,33.333333333333336,-0.401,-0.645,0.648
1970-01-01 00:00:00.000149346,1755597940428,23.67,-44.55,2.47,,,,,,34.48275862068966,-0.403,-0.646,0.647
1970-01-01 00:00:00.000149376,1755597940457,23.68,-44.56,2.47,,,,,,33.333333333333336,-0.403,-0.646,0.647
1970-01-01 00:00:00.000149406,1755597940487,23.67,-44.54,2.48,,,,,,33.333333333333336,-0.402,-0.646,0.648
1970-01-01 00:00:00.000149435,1755597940517,23.66,-44.54,2.46,,,,,,34.48275862068966,-0.403,-0.645,0.647
1970-01-01 00:00:00.000149465,1755597940546,23.65,-44.57,2.45,,,,,,33.333333333333336,-0.403,-0.645,0.646
1970-01-01 00:00:00.000149494,1755597940576,23.68,-44.58,2.46,,,,,,34.48275862068966,-0.403,-0.647,0.648
1970-01-01 00:00:00.000149524,1755597940605,23.71,-44.58,2.46,,,,,,33.333333333333336,-0.401,-0.646,0.647
1970-01-01 00:00:00.000149553,1755597940635,23.68,-44.59,2.44,,,,,,34.48275862068966,-0.402,-0.645,0.647
1970-01-01 00:00:00.000149583,1755597940664,23.68,-44.59,2.43,,,,,,33.333333333333336,-0.403,-0.646,0.648
1970-01-01 00:00:00.000149612,1755597940694,23.69,-44.6,2.43,,,,,,34.48275862068966,-0.403,-0.647,0.646
1970-01-01 00:00:00.000149642,1755597940723,23.69,-44.62,2.44,,,,,,33.333333333333336,-0.403,-0.647,0.645
1970-01-01 00:00:00.000149672,1755597940753,23.67,-44.62,2.45,,,,,,33.333333333333336,-0.403,-0.648,0.648
1970-01-01 00:00:00.000149701,1755597940782,23.7,-44.59,2.46,,,,,,34.48275862068966,-0.402,-0.647,0.647
1970-01-01 00:00:00.000149731,1755597940812,23.68,-44.6,2.44,,,,,,33.333333333333336,-0.402,-0.647,0.645
1970-01-01 00:00:00.000149760,1755597940841,23.68,-44.61,2.46,,,,,,34.48275862068966,-0.404,-0.648,0.647
1970-01-01 00:00:00.000149790,1755597940871,23.71,-44.58,2.49,,,,,,33.333333333333336,-0.404,-0.648,0.648
1970-01-01 00:00:00.000149819,1755597940901,23.68,-44.56,2.49,,,,,,34.48275862068966,-0.402,-0.646,0.647
1970-01-01 00:00:00.000149848,1755597940930,23.68,-44.58,2.49,,,,,,34.48275862068966,-0.402,-0.647,0.647
1970-01-01 00:00:00.000149878,1755597940959,23.69,-44.58,2.5,,,,,,33.333333333333336,-0.401,-0.646,0.648
1970-01-01 00:00:00.000149908,1755597940989,23.67,-44.55,2.49,,,,,,33.333333333333336,-0.401,-0.647,0.648
1970-01-01 00:00:00.000149937,1755597941019,23.66,-44.57,2.5,,,,,,34.48275862068966,-0.402,-0.647,0.647
1970-01-01 00:00:00.000149967,1755597941048,23.67,-44.58,2.52,,,,,,33.333333333333336,-0.402,-0.647,0.647
1970-01-01 00:00:00.000149996,1755597941078,23.67,-44.58,2.52,,,,,,34.48275862068966,-0.402,-0.646,0.648
1970-01-01 00:00:00.000150026,1755597941107,23.65,-44.56,2.52,,,,,,33.333333333333336,-0.403,-0.647,0.649
1970-01-01 00:00:00.000150055,1755597941136,23.67,-44.56,2.54,,,,,,34.48275862068966,-0.402,-0.646,0.648
1970-01-01 00:00:00.000150114,1755597941196,23.68,-44.57,2.55,,,,,,34.48275862068966,-0.401,-0.646,0.649
1970-01-01 00:00:00.000150144,1755597941225,23.67,-44.56,2.54,,,,,,33.333333333333336,-0.402,-0.645,0.647
1970-01-01 00:00:00.000150203,1755597941284,23.67,-44.62,2.57,,,,,,33.333333333333336,-0.403,-0.647,0.651
1970-01-01 00:00:00.000150232,1755597941313,23.68,-44.58,2.58,,,,,,34.48275862068966,-0.399,-0.647,0.651
1970-01-01 00:00:00.000150261,1755597941343,23.66,-44.58,2.55,,,,,,34.48275862068966,-0.398,-0.646,0.65
1970-01-01 00:00:00.000150320,1755597941402,23.67,-44.57,2.56,,,,,,34.48275862068966,-0.403,-0.647,0.649
1970-01-01 00:00:00.000150350,1755597941431,23.68,-44.57,2.58,,,,,,33.333333333333336,-0.403,-0.646,0.649
1970-01-01 00:00:00.000150379,1755597941461,23.67,-44.57,2.58,,,,,,34.48275862068966,-0.402,-0.645,0.648
1970-01-01 00:00:00.000150409,1755597941490,23.65,-44.59,2.57,,,,,,33.333333333333336,-0.401,-0.646,0.648
1970-01-01 00:00:00.000150438,1755597941520,23.67,-44.58,2.58,,,,,,34.48275862068966,-0.402,-0.647,0.648
1970-01-01 00:00:00.000150468,1755597941549,23.68,-44.59,2.6,,,,,,33.333333333333336,-0.401,-0.647,0.65
1970-01-01 00:00:00.000150497,1755597941579,23.67,-44.56,2.61,,,,,,34.48275862068966,-0.401,-0.646,0.65
1970-01-01 00:00:00.000150527,1755597941608,23.68,-44.57,2.61,,,,,,33.333333333333336,-0.401,-0.645,0.649
1970-01-01 00:00:00.000150556,1755597941638,23.68,-44.57,2.62,,,,,,34.48275862068966,-0.402,-0.646,0.649
1970-01-01 00:00:00.000150586,1755597941667,23.68,-44.57,2.62,,,,,,33.333333333333336,-0.402,-0.646,0.649
1970-01-01 00:00:00.000150615,1755597941697,23.66,-44.56,2.63,,,,,,34.48275862068966,-0.402,-0.646,0.648
1970-01-01 00:00:00.000150645,1755597941727,23.7,-44.57,2.64,,,,,,33.333333333333336,-0.401,-0.646,0.649
1970-01-01 00:00:00.000150675,1755597941756,23.68,-44.56,2.64,,,,,,33.333333333333336,-0.401,-0.646,0.65
1970-01-01 00:00:00.000150704,1755597941786,23.67,-44.53,2.65,,,,,,34.48275862068966,-0.4,-0.646,0.649
1970-01-01 00:00:00.000150734,1755597941815,23.69,-44.55,2.65,,,,,,33.333333333333336,-0.401,-0.645,0.647
1970-01-01 00:00:00.000150763,1755597941845,23.67,-44.58,2.63,,,,,,34.48275862068966,-0.402,-0.646,0.647
1970-01-01 00:00:00.000150793,1755597941874,23.64,-44.57,2.62,,,,,,33.333333333333336,-0.404,-0.648,0.651
1970-01-01 00:00:00.000150822,1755597941903,23.68,-44.54,2.66,,,,,,34.48275862068966,-0.403,-0.647,0.651
