timestamp_ms,recv_timestamp_ms,pitch,roll,yaw,flex1,flex2,flex3,flex4,flex5,sampling_hz,accel_x,accel_y,accel_z
169201,1755602875461,20.99,2.3,-19.24,800,918,771,416,812,34.48275862068966,-0.354,0.037,0.941
169230,1755602875463,21.01,2.28,-19.27,796,918,772,376,803,34.48275862068966,-0.354,0.036,0.942
169260,1755602875465,20.99,2.28,-19.28,797,924,777,331,817,33.333333333333336,-0.355,0.035,0.942
169290,1755602875467,21.0,2.27,-19.29,801,923,774,372,810,33.333333333333336,-0.356,0.035,0.942
169319,1755602875469,21.01,2.28,-19.3,796,926,775,416,810,34.48275862068966,-0.355,0.036,0.942
169349,1755602875471,21.0,2.29,-19.31,804,923,773,387,813,33.333333333333336,-0.355,0.036,0.942
169378,1755602875473,21.01,2.28,-19.32,802,925,782,315,811,34.48275862068966,-0.355,0.035,0.942
169408,1755602875476,21.01,2.26,-19.33,803,919,769,332,813,33.333333333333336,-0.355,0.035,0.942
169437,1755602875478,21.01,2.25,-19.34,796,922,778,375,811,34.48275862068966,-0.355,0.035,0.943
169467,1755602875480,21.02,2.26,-19.36,800,918,770,398,818,33.333333333333336,-0.355,0.036,0.943
169496,1755602875482,21.05,2.25,-19.38,797,925,772,337,812,34.48275862068966,-0.354,0.036,0.94
169525,1755602875484,21.05,2.23,-19.4,804,924,775,321,820,34.48275862068966,-0.355,0.035,0.94
169584,1755602875488,21.04,2.18,-19.4,807,915,773,410,813,34.48275862068966,-0.355,0.029,0.942
169614,1755602875490,21.04,2.18,-19.4,799,913,773,348,816,33.333333333333336,-0.355,0.03,0.943
169643,1755602875492,21.04,2.18,-19.4,801,917,770,335,811,34.48275862068966,-0.355,0.031,0.943
169673,1755602875494,21.05,2.18,-19.41,799,923,774,378,812,33.333333333333336,-0.355,0.032,0.943
169752,1755602875501,21.04,2.18,-19.43,800,925,771,414,810,33.333333333333336,-0.357,0.033,0.943
169781,1755602875502,21.06,2.18,-19.43,801,925,778,379,811,34.48275862068966,-0.357,0.034,0.942
169811,1755602875505,21.08,2.18,-19.43,798,920,772,319,815,33.333333333333336,-0.356,0.034,0.941
169899,1755602875511,21.09,2.15,-19.4,799,922,775,402,811,34.48275862068966,-0.358,0.033,0.943
169929,1755602875512,21.1,2.16,-19.37,802,927,779,327,816,33.333333333333336,-0.357,0.034,0.942
169958,1755602875514,21.13,2.14,-19.37,797,927,779,291,819,34.48275862068966,-0.355,0.036,0.942
169988,1755602875516,21.14,2.12,-19.38,802,923,773,387,814,33.333333333333336,-0.353,0.037,0.942
170017,1755602875518,21.16,2.11,-19.4,798,918,773,412,819,34.48275862068966,-0.352,0.037,0.942
170047,1755602875520,21.19,2.1,-19.43,801,921,778,358,810,33.333333333333336,-0.355,0.036,0.942
170076,1755602875522,21.18,2.09,-19.44,794,918,773,337,821,34.48275862068966,-0.357,0.035,0.941
170105,1755602875525,21.19,2.07,-19.44,804,920,774,390,804,34.48275862068966,-0.359,0.034,0.941
170135,1755602875527,21.2,2.05,-19.44,801,923,769,416,816,33.333333333333336,-0.357,0.035,0.94
170164,1755602875529,21.18,2.03,-19.45,799,926,783,389,816,34.48275862068966,-0.356,0.036,0.94
170194,1755602875531,21.19,2.0,-19.48,801,922,777,327,815,33.333333333333336,-0.355,0.034,0.941
170223,1755602875533,21.2,1.97,-19.52,805,927,779,362,808,34.48275862068966,-0.356,0.033,0.942
170282,1755602875537,21.1,1.91,-19.61,792,931,775,408,811,34.48275862068966,-0.356,0.034,0.94
170312,1755602875539,21.06,1.91,-19.65,794,921,766,342,822,33.333333333333336,-0.359,0.034,0.942
170342,1755602875541,21.05,1.9,-19.67,798,927,774,350,812,33.333333333333336,-0.358,0.03,0.943
170371,1755602875543,21.1,1.88,-19.69,797,918,774,397,813,34.48275862068966,-0.358,0.029,0.942
170401,1755602875546,21.08,1.87,-19.69,801,924,769,423,822,33.333333333333336,-0.359,0.03,0.94
170430,1755602875547,21.11,1.81,-19.7,805,916,779,373,817,34.48275862068966,-0.36,0.028,0.941
170459,1755602875550,21.12,1.79,-19.69,795,928,772,292,808,34.48275862068966,-0.359,0.029,0.943
170489,1755602875551,21.08,1.82,-19.69,797,920,779,352,810,33.333333333333336,-0.356,0.03,0.943
170518,1755602875554,21.03,1.75,-19.72,801,922,772,423,813,34.48275862068966,-0.353,0.03,0.94
170548,1755602875556,20.99,1.67,-19.76,800,924,771,399,820,33.333333333333336,-0.354,0.03,0.941
170577,1755602875557,20.97,1.58,-19.79,800,911,770,338,816,34.48275862068966,-0.354,0.029,0.942
170607,1755602875559,20.97,1.55,-19.82,801,921,774,348,809,33.333333333333336,-0.354,0.031,0.943
170666,1755602875564,20.97,1.49,-19.85,800,925,775,398,816,33.333333333333336,-0.359,0.021,0.943
170695,1755602875566,20.98,1.48,-19.82,799,922,774,323,807,34.48275862068966,-0.361,0.018,0.944
170725,1755602875568,21.01,1.5,-19.77,795,920,777,331,813,33.333333333333336,-0.362,0.019,0.944
170755,1755602875570,21.01,1.55,-19.72,794,927,774,374,813,33.333333333333336,-0.359,0.021,0.943
170784,1755602875572,21.01,1.54,-19.7,799,920,773,405,816,34.48275862068966,-0.356,0.023,0.942
170814,1755602875574,21.02,1.52,-19.67,801,931,775,371,816,33.333333333333336,-0.355,0.024,0.942
170843,1755602875576,21.03,1.53,-19.66,799,923,779,313,813,34.48275862068966,-0.355,0.024,0.943
170873,1755602875578,21.01,1.55,-19.64,795,918,773,341,818,33.333333333333336,-0.354,0.023,0.943
170903,1755602875580,21.02,1.56,-19.63,799,919,781,418,805,33.333333333333336,-0.354,0.023,0.943
170932,1755602875582,21.02,1.57,-19.61,801,925,772,412,812,34.48275862068966,-0.355,0.024,0.943
170962,1755602875584,21.0,1.57,-19.57,801,919,771,335,812,33.333333333333336,-0.355,0.024,0.941
170991,1755602875586,20.99,1.56,-19.53,805,921,767,337,812,34.48275862068966,-0.354,0.024,0.941
171021,1755602875588,21.03,1.53,-19.51,797,917,770,389,822,33.333333333333336,-0.352,0.026,0.942
171050,1755602875591,21.03,1.5,-19.52,800,932,770,418,815,34.48275862068966,-0.35,0.027,0.942
171080,1755602875592,21.02,1.48,-19.54,797,922,778,372,816,33.333333333333336,-0.351,0.024,0.944
171109,1755602875594,21.03,1.48,-19.53,801,923,777,325,816,34.48275862068966,-0.355,0.022,0.946
171138,1755602875596,21.07,1.53,-19.51,801,916,772,370,814,34.48275862068966,-0.356,0.023,0.945
171168,1755602875598,21.07,1.6,-19.51,798,920,771,416,817,33.333333333333336,-0.356,0.024,0.943
171197,1755602875601,21.04,1.63,-19.51,798,911,777,373,816,34.48275862068966,-0.357,0.023,0.94
171227,1755602875614,21.04,1.63,-19.5,798,932,776,332,809,33.333333333333336,-0.357,0.023,0.94
171286,1755602875673,21.03,1.67,-19.52,799,914,771,426,810,33.333333333333336,-0.352,0.03,0.942
171316,1755602875703,21.01,1.69,-19.56,799,921,774,420,816,33.333333333333336,-0.352,0.029,0.941
171345,1755602875732,21.0,1.69,-19.6,796,922,774,331,813,34.48275862068966,-0.352,0.027,0.941
171375,1755602875761,20.97,1.67,-19.62,799,920,776,323,812,33.333333333333336,-0.355,0.027,0.942
171404,1755602875791,20.96,1.69,-19.63,797,917,779,382,807,34.48275862068966,-0.357,0.027,0.944
171434,1755602875820,20.99,1.73,-19.63,797,918,771,397,809,33.333333333333336,-0.355,0.028,0.944
171492,1755602875879,20.98,1.72,-19.68,801,918,777,342,815,34.48275862068966,-0.355,0.028,0.941
171522,1755602875909,20.96,1.72,-19.7,796,915,774,373,816,33.333333333333336,-0.355,0.028,0.943
171551,1755602875938,20.96,1.72,-19.72,794,924,772,429,805,34.48275862068966,-0.354,0.029,0.942
171581,1755602875967,20.93,1.72,-19.75,800,916,777,401,809,33.333333333333336,-0.354,0.028,0.941
171610,1755602875997,20.91,1.67,-19.77,798,921,771,332,821,34.48275862068966,-0.355,0.027,0.941
171639,1755602876026,20.9,1.67,-19.77,802,913,777,368,814,34.48275862068966,-0.357,0.025,0.944
171669,1755602876056,20.89,1.72,-19.74,801,916,773,427,811,33.333333333333336,-0.358,0.025,0.945
171698,1755602876085,20.89,1.76,-19.72,803,920,777,394,811,34.48275862068966,-0.357,0.025,0.943
171758,1755602876144,20.87,1.79,-19.7,801,911,781,342,813,33.333333333333336,-0.355,0.027,0.942
171787,1755602876174,20.85,1.79,-19.71,797,916,773,400,812,34.48275862068966,-0.355,0.029,0.943
171817,1755602876204,20.84,1.81,-19.71,794,916,779,415,813,33.333333333333336,-0.353,0.031,0.943
171846,1755602876233,20.85,1.81,-19.73,791,930,769,353,819,34.48275862068966,-0.352,0.032,0.941
171876,1755602876262,20.86,1.78,-19.76,800,914,776,325,821,33.333333333333336,-0.352,0.031,0.941
171905,1755602876292,20.85,1.77,-19.78,797,909,773,381,811,34.48275862068966,-0.353,0.03,0.943
171934,1755602876321,20.86,1.77,-19.79,800,919,774,406,813,34.48275862068966,-0.352,0.03,0.945
171964,1755602876351,20.88,1.79,-19.8,791,915,774,386,813,33.333333333333336,-0.352,0.029,0.944
171993,1755602876380,20.87,1.79,-19.81,798,912,779,293,814,34.48275862068966,-0.353,0.029,0.942
172023,1755602876409,20.86,1.78,-19.8,800,914,776,341,816,33.333333333333336,-0.355,0.03,0.941
172052,1755602876439,20.87,1.75,-19.8,793,921,769,420,814,34.48275862068966,-0.356,0.029,0.942
172082,1755602876469,20.86,1.77,-19.78,796,924,777,415,812,33.333333333333336,-0.357,0.027,0.944
172102,1755602876489,20.85,1.8,-19.75,797,917,776,406,811,50.0,-0.356,0.028,0.945
172131,1755602876518,20.85,1.8,-19.72,797,915,779,374,813,34.48275862068966,-0.352,0.03,0.943
172161,1755602876547,20.83,1.79,-19.71,799,918,774,316,804,33.333333333333336,-0.35,0.03,0.943
172190,1755602876577,20.79,1.79,-19.71,797,919,775,333,814,34.48275862068966,-0.349,0.031,0.943
172220,1755602876606,20.81,1.8,-19.72,798,917,774,411,818,33.333333333333336,-0.349,0.031,0.945
172249,1755602876636,20.85,1.82,-19.73,799,921,771,412,813,34.48275862068966,-0.35,0.032,0.945
172278,1755602876665,20.86,1.82,-19.73,796,921,777,332,813,34.48275862068966,-0.35,0.032,0.943
172308,1755602876694,20.88,1.79,-19.74,795,913,771,332,807,33.333333333333336,-0.35,0.032,0.942
172337,1755602876724,20.87,1.78,-19.75,798,920,773,399,817,34.48275862068966,-0.35,0.032,0.942
172366,1755602876753,20.89,1.76,-19.77,802,908,775,367,809,34.48275862068966,-0.351,0.032,0.943
172396,1755602876783,20.89,1.76,-19.78,798,919,777,330,818,33.333333333333336,-0.351,0.031,0.943
172425,1755602876812,20.88,1.77,-19.81,795,923,775,329,809,34.48275862068966,-0.351,0.03,0.943
172455,1755602876842,20.88,1.77,-19.84,796,917,777,387,809,33.333333333333336,-0.353,0.029,0.943
172484,1755602876871,20.89,1.78,-19.84,798,909,774,428,814,34.48275862068966,-0.354,0.028,0.944
172514,1755602876900,20.9,1.8,-19.85,798,910,774,346,806,33.333333333333336,-0.355,0.029,0.942
172543,1755602876930,20.91,1.81,-19.87,805,922,779,298,816,34.48275862068966,-0.354,0.031,0.942
172572,1755602876959,20.92,1.81,-19.89,796,916,780,343,811,34.48275862068966,-0.351,0.032,0.942
172602,1755602876989,20.94,1.79,-19.93,802,919,770,427,814,33.333333333333336,-0.35,0.033,0.942
172632,1755602877019,20.94,1.78,-19.99,792,925,780,408,813,33.333333333333336,-0.35,0.032,0.942
172662,1755602877049,20.94,1.78,-20.03,797,915,775,337,815,33.333333333333336,-0.353,0.03,0.941
172682,1755602877068,20.94,1.76,-20.06,801,912,774,423,807,50.0,-0.356,0.027,0.942
172711,1755602877098,20.94,1.79,-20.05,792,928,773,342,816,34.48275862068966,-0.358,0.027,0.943
172741,1755602877127,20.97,1.78,-20.04,798,924,773,353,814,33.333333333333336,-0.356,0.03,0.941
172770,1755602877157,21.01,1.74,-20.05,795,917,770,410,814,34.48275862068966,-0.355,0.03,0.94
172829,1755602877216,21.08,1.75,-20.09,795,917,774,357,815,33.333333333333336,-0.356,0.029,0.942
172858,1755602877245,21.12,1.71,-20.09,799,924,777,342,818,34.48275862068966,-0.358,0.028,0.94
172888,1755602877275,21.12,1.67,-20.08,796,915,772,410,805,33.333333333333336,-0.357,0.027,0.939
172917,1755602877304,21.13,1.61,-20.08,793,914,767,418,813,34.48275862068966,-0.356,0.029,0.939
172947,1755602877334,21.14,1.57,-20.09,797,922,769,382,816,33.333333333333336,-0.356,0.029,0.942
172976,1755602877363,21.17,1.58,-20.09,800,909,779,319,811,34.48275862068966,-0.357,0.026,0.943
173006,1755602877393,21.16,1.62,-20.1,796,918,770,348,816,33.333333333333336,-0.357,0.025,0.941
173036,1755602877423,21.18,1.59,-20.09,799,910,774,408,816,33.333333333333336,-0.357,0.025,0.94
173065,1755602877452,21.19,1.57,-20.09,799,921,774,397,814,34.48275862068966,-0.358,0.028,0.941
173095,1755602877481,21.19,1.59,-20.11,800,921,771,329,815,33.333333333333336,-0.358,0.028,0.941
173124,1755602877511,21.19,1.6,-20.13,800,916,770,333,807,34.48275862068966,-0.357,0.026,0.941
173154,1755602877541,21.18,1.61,-20.17,797,932,772,403,813,33.333333333333336,-0.356,0.025,0.94
173174,1755602877560,21.16,1.61,-20.21,793,915,769,335,813,50.0,-0.355,0.025,0.94
173203,1755602877590,21.13,1.63,-20.26,797,925,771,404,810,34.48275862068966,-0.355,0.027,0.941
173232,1755602877619,21.13,1.62,-20.3,798,923,773,412,809,34.48275862068966,-0.358,0.027,0.941
173262,1755602877648,21.14,1.63,-20.31,795,909,779,335,816,33.333333333333336,-0.361,0.025,0.941
173291,1755602877678,21.15,1.64,-20.29,797,911,772,343,816,34.48275862068966,-0.361,0.024,0.941
173321,1755602877708,21.13,1.63,-20.28,803,912,768,384,813,33.333333333333336,-0.357,0.025,0.941
173350,1755602877737,21.13,1.61,-20.29,798,920,768,414,811,34.48275862068966,-0.355,0.027,0.941
173380,1755602877766,21.13,1.61,-20.31,791,912,769,378,806,33.333333333333336,-0.356,0.027,0.943
173409,1755602877796,21.15,1.65,-20.33,796,911,778,319,818,34.48275862068966,-0.357,0.026,0.943
173468,1755602877855,21.2,1.64,-20.39,799,916,773,420,811,33.333333333333336,-0.356,0.027,0.939
173497,1755602877884,21.19,1.62,-20.44,798,918,776,383,810,34.48275862068966,-0.357,0.027,0.94
173527,1755602877914,21.22,1.6,-20.48,797,921,773,324,810,33.333333333333336,-0.36,0.028,0.941
173557,1755602877944,21.21,1.62,-20.49,790,917,775,340,817,33.333333333333336,-0.36,0.028,0.94
173586,1755602877973,21.19,1.61,-20.51,799,923,776,370,810,34.48275862068966,-0.359,0.026,0.938
173616,1755602878003,21.19,1.56,-20.52,795,916,776,406,817,33.333333333333336,-0.359,0.024,0.938
173646,1755602878032,21.18,1.53,-20.53,796,919,778,342,812,33.333333333333336,-0.362,0.025,0.939
173675,1755602878062,21.17,1.56,-20.53,793,912,777,330,812,34.48275862068966,-0.368,0.022,0.942
173704,1755602878091,21.19,1.66,-20.45,792,921,773,393,811,34.48275862068966,-0.369,0.019,0.945
173734,1755602878121,21.25,1.69,-20.36,800,915,766,413,814,33.333333333333336,-0.364,0.02,0.941
173763,1755602878152,21.23,1.63,-20.3,796,925,766,387,813,34.48275862068966,-0.357,0.023,0.936
173785,1755602878172,21.19,1.57,-20.29,798,913,779,413,815,45.45454545454545,-0.351,0.026,0.938
173815,1755602878201,21.17,1.57,-20.3,788,916,775,397,821,33.333333333333336,-0.349,0.029,0.943
173844,1755602878231,21.17,1.62,-20.32,793,909,778,343,807,34.48275862068966,-0.352,0.029,0.942
173873,1755602878260,21.16,1.66,-20.33,798,908,777,356,813,34.48275862068966,-0.355,0.027,0.939
173903,1755602878290,21.15,1.63,-20.33,792,918,776,431,812,33.333333333333336,-0.358,0.025,0.938
173933,1755602878319,21.16,1.61,-20.31,797,916,775,428,811,33.333333333333336,-0.36,0.025,0.94
173962,1755602878349,21.16,1.64,-20.27,800,919,774,361,813,34.48275862068966,-0.36,0.025,0.943
173992,1755602878378,21.15,1.68,-20.22,796,921,771,327,813,33.333333333333336,-0.358,0.026,0.942
174021,1755602878408,21.17,1.68,-20.2,794,917,769,377,812,34.48275862068966,-0.356,0.027,0.941
174050,1755602878437,21.14,1.69,-20.19,796,911,772,421,816,34.48275862068966,-0.355,0.029,0.941
174080,1755602878467,21.12,1.73,-20.18,799,919,778,386,811,33.333333333333336,-0.354,0.03,0.942
174109,1755602878496,21.11,1.74,-20.18,800,907,776,329,812,34.48275862068966,-0.355,0.031,0.941
174139,1755602878525,21.1,1.73,-20.18,797,916,769,365,811,33.333333333333336,-0.355,0.03,0.941
174168,1755602878555,21.1,1.74,-20.18,797,914,776,442,822,34.48275862068966,-0.355,0.029,0.941
174197,1755602878584,21.08,1.75,-20.19,802,927,776,412,811,34.48275862068966,-0.355,0.03,0.942
174227,1755602878614,21.08,1.77,-20.2,802,912,775,324,816,33.333333333333336,-0.356,0.03,0.942
174256,1755602878643,21.06,1.78,-20.2,799,916,773,348,810,34.48275862068966,-0.357,0.029,0.942
174286,1755602878673,21.04,1.8,-20.2,793,915,779,418,811,33.333333333333336,-0.355,0.03,0.942
174315,1755602878702,21.02,1.8,-20.22,797,913,774,408,810,34.48275862068966,-0.354,0.032,0.941
174374,1755602878761,20.98,1.8,-20.28,796,912,771,337,812,34.48275862068966,-0.354,0.032,0.942
174404,1755602878791,21.0,1.79,-20.29,798,905,773,413,819,33.333333333333336,-0.355,0.031,0.943
174433,1755602878820,20.98,1.79,-20.3,798,912,776,414,808,34.48275862068966,-0.356,0.031,0.943
174463,1755602878849,20.98,1.8,-20.32,795,908,776,358,819,33.333333333333336,-0.356,0.031,0.943
174492,1755602878879,20.98,1.8,-20.33,793,916,774,334,815,34.48275862068966,-0.355,0.03,0.943
174522,1755602878909,20.98,1.78,-20.34,797,917,775,355,815,33.333333333333336,-0.354,0.03,0.942
174551,1755602878938,20.97,1.77,-20.37,802,922,775,427,810,34.48275862068966,-0.354,0.031,0.942
174581,1755602878967,20.98,1.78,-20.39,799,921,768,390,809,33.333333333333336,-0.355,0.03,0.943
174610,1755602878997,20.99,1.79,-20.4,791,915,777,320,812,34.48275862068966,-0.356,0.029,0.944
174639,1755602879026,21.01,1.81,-20.41,803,916,770,340,813,34.48275862068966,-0.355,0.03,0.942
174669,1755602879056,21.02,1.8,-20.42,794,910,776,423,812,33.333333333333336,-0.355,0.03,0.941
174728,1755602879114,21.02,1.76,-20.45,794,920,775,327,806,33.333333333333336,-0.354,0.031,0.941
174757,1755602879144,21.04,1.75,-20.47,797,922,777,327,807,34.48275862068966,-0.356,0.03,0.939
174786,1755602879173,21.04,1.72,-20.47,801,904,774,417,811,34.48275862068966,-0.358,0.029,0.94
174816,1755602879203,21.05,1.7,-20.47,794,917,769,417,816,33.333333333333336,-0.358,0.028,0.943
174845,1755602879232,21.07,1.72,-20.44,796,915,767,355,813,34.48275862068966,-0.359,0.027,0.945
174875,1755602879261,21.09,1.75,-20.41,805,911,773,346,815,33.333333333333336,-0.358,0.026,0.944
174904,1755602879291,21.13,1.75,-20.39,794,912,777,378,807,34.48275862068966,-0.356,0.026,0.944
174934,1755602879320,21.11,1.78,-20.38,797,913,768,370,810,33.333333333333336,-0.351,0.032,0.943
174963,1755602879350,21.12,1.79,-20.42,794,912,773,352,816,34.48275862068966,-0.352,0.035,0.941
174992,1755602879379,21.08,1.79,-20.47,797,921,775,328,818,34.48275862068966,-0.352,0.033,0.941
175022,1755602879408,21.04,1.78,-20.5,803,919,775,354,813,33.333333333333336,-0.353,0.03,0.943
175051,1755602879438,21.05,1.78,-20.53,798,916,773,417,806,34.48275862068966,-0.352,0.031,0.944
175081,1755602879467,21.04,1.8,-20.58,797,916,782,395,811,33.333333333333336,-0.353,0.032,0.942
175110,1755602879497,21.03,1.79,-20.61,794,921,770,339,814,34.48275862068966,-0.356,0.03,0.941
175139,1755602879526,21.01,1.76,-20.62,794,915,775,351,813,34.48275862068966,-0.357,0.028,0.941
175169,1755602879556,21.03,1.74,-20.62,795,920,774,409,819,33.333333333333336,-0.358,0.028,0.943
175199,1755602879586,21.03,1.76,-20.62,799,921,773,417,807,33.333333333333336,-0.355,0.029,0.943
175228,1755602879615,21.02,1.76,-20.64,800,917,774,356,812,34.48275862068966,-0.353,0.031,0.941
175258,1755602879645,21.02,1.72,-20.68,803,914,768,345,819,33.333333333333336,-0.353,0.03,0.941
175317,1755602879703,21.01,1.71,-20.69,797,921,774,422,814,33.333333333333336,-0.356,0.027,0.943
175346,1755602879733,21.01,1.71,-20.7,798,920,777,362,813,34.48275862068966,-0.357,0.026,0.943
175375,1755602879762,21.01,1.72,-20.69,796,917,777,335,819,34.48275862068966,-0.358,0.027,0.943
175464,1755602879851,21.12,1.74,-20.64,800,912,772,393,813,33.333333333333336,-0.356,0.024,0.944
175494,1755602879881,21.1,1.77,-20.62,797,918,776,332,820,33.333333333333336,-0.352,0.03,0.942
175523,1755602879910,21.11,1.74,-20.66,790,917,775,343,813,34.48275862068966,-0.351,0.034,0.939
175553,1755602879939,21.11,1.72,-20.69,800,918,772,401,811,33.333333333333336,-0.355,0.033,0.942
175582,1755602879969,21.1,1.76,-20.7,798,911,769,408,814,34.48275862068966,-0.358,0.03,0.944
175611,1755602879998,21.13,1.79,-20.7,798,916,777,335,811,34.48275862068966,-0.358,0.029,0.941
175641,1755602880028,21.12,1.76,-20.72,794,914,773,339,811,33.333333333333336,-0.356,0.029,0.939
175671,1755602880057,21.11,1.73,-20.75,798,917,776,397,820,33.333333333333336,-0.355,0.03,0.941
175729,1755602880116,21.1,1.75,-20.81,795,914,779,337,805,34.48275862068966,-0.354,0.03,0.943
175759,1755602880146,21.07,1.76,-20.84,801,916,775,309,804,33.333333333333336,-0.356,0.029,0.941
175788,1755602880175,21.06,1.75,-20.87,793,918,772,366,815,34.48275862068966,-0.357,0.028,0.94
175818,1755602880204,21.08,1.74,-20.91,797,909,778,419,812,33.333333333333336,-0.359,0.027,0.942
175847,1755602880234,21.07,1.75,-20.91,795,922,775,399,816,34.48275862068966,-0.359,0.027,0.942
175876,1755602880264,21.1,1.73,-20.92,800,917,778,334,813,34.48275862068966,-0.358,0.029,0.941
175906,1755602880293,21.16,1.71,-20.95,795,917,770,355,816,33.333333333333336,-0.359,0.029,0.94
175965,1755602880352,21.19,1.61,-20.98,796,922,774,418,815,34.48275862068966,-0.36,0.023,0.941
175995,1755602880381,21.21,1.61,-20.99,795,915,767,356,813,33.333333333333336,-0.361,0.023,0.945
176024,1755602880411,21.25,1.66,-20.97,796,911,775,296,814,34.48275862068966,-0.362,0.024,0.946
176053,1755602880440,21.23,1.7,-20.94,801,912,777,347,808,34.48275862068966,-0.361,0.026,0.943
176083,1755602880470,21.22,1.68,-20.93,800,913,777,382,814,33.333333333333336,-0.358,0.028,0.941
176112,1755602880499,21.23,1.65,-20.93,801,919,773,339,817,34.48275862068966,-0.359,0.027,0.942
176142,1755602880529,21.22,1.65,-20.91,795,916,775,312,813,33.333333333333336,-0.36,0.027,0.943
176172,1755602880559,21.21,1.66,-20.89,794,918,781,347,815,33.333333333333336,-0.358,0.028,0.944
176202,1755602880588,21.21,1.66,-20.9,799,917,775,424,807,33.333333333333336,-0.355,0.03,0.944
176231,1755602880618,21.21,1.66,-20.94,794,921,765,386,809,34.48275862068966,-0.355,0.029,0.944
176260,1755602880647,21.21,1.68,-20.95,793,917,773,320,809,34.48275862068966,-0.358,0.025,0.945
176290,1755602880676,21.2,1.7,-20.94,788,917,775,343,818,33.333333333333336,-0.361,0.024,0.944
176319,1755602880706,21.22,1.72,-20.91,792,915,776,429,811,34.48275862068966,-0.362,0.027,0.943
176348,1755602880735,21.21,1.72,-20.88,796,909,780,403,811,34.48275862068966,-0.359,0.03,0.941
176407,1755602880794,21.13,1.67,-20.91,789,917,774,328,815,34.48275862068966,-0.355,0.031,0.943
176437,1755602880824,21.13,1.65,-20.94,796,918,774,399,810,33.333333333333336,-0.355,0.029,0.945
176466,1755602880853,21.14,1.66,-20.97,789,922,767,418,816,34.48275862068966,-0.356,0.028,0.944
176495,1755602880882,21.14,1.65,-21.0,796,920,771,363,813,34.48275862068966,-0.358,0.027,0.942
176525,1755602880912,21.13,1.63,-21.02,793,924,771,332,807,33.333333333333336,-0.36,0.026,0.942
176585,1755602880971,21.16,1.65,-21.02,798,917,775,411,809,33.333333333333336,-0.359,0.027,0.944
176614,1755602881001,21.16,1.65,-21.03,799,913,776,402,812,34.48275862068966,-0.358,0.028,0.942
176644,1755602881031,21.19,1.64,-21.06,796,922,769,319,806,33.333333333333336,-0.357,0.027,0.942
176673,1755602881060,21.21,1.63,-21.09,796,928,776,344,808,34.48275862068966,-0.359,0.026,0.943
176703,1755602881090,21.18,1.63,-21.09,798,914,769,403,812,33.333333333333336,-0.36,0.026,0.942
176732,1755602881119,21.18,1.65,-21.09,796,924,773,405,816,34.48275862068966,-0.358,0.027,0.943
176761,1755602881149,21.17,1.65,-21.09,796,920,779,304,820,34.48275862068966,-0.357,0.027,0.944
176791,1755602881179,21.16,1.65,-21.12,801,914,777,320,809,33.333333333333336,-0.356,0.027,0.944
176821,1755602881208,21.14,1.65,-21.13,790,919,772,375,820,33.333333333333336,-0.356,0.027,0.944
176850,1755602881237,21.15,1.62,-21.16,792,919,771,416,806,34.48275862068966,-0.357,0.027,0.943
176880,1755602881266,21.16,1.6,-21.19,792,918,772,398,819,33.333333333333336,-0.358,0.027,0.943
176909,1755602881296,21.15,1.61,-21.21,795,919,774,322,812,34.48275862068966,-0.359,0.027,0.943
176938,1755602881325,21.15,1.61,-21.21,796,914,779,361,808,34.48275862068966,-0.359,0.025,0.943
176968,1755602881355,21.16,1.62,-21.21,802,917,776,426,815,33.333333333333336,-0.358,0.026,0.942
176997,1755602881384,21.14,1.59,-21.22,789,913,777,409,811,34.48275862068966,-0.358,0.025,0.941
177027,1755602881414,21.12,1.57,-21.23,799,914,778,334,809,33.333333333333336,-0.358,0.025,0.942
177056,1755602881443,21.12,1.57,-21.23,797,914,773,304,806,34.48275862068966,-0.358,0.025,0.943
177086,1755602881473,21.12,1.58,-21.22,805,915,779,401,821,33.333333333333336,-0.358,0.025,0.943
177115,1755602881502,21.12,1.58,-21.23,789,921,779,398,809,34.48275862068966,-0.358,0.026,0.942
177145,1755602881532,21.1,1.57,-21.23,799,914,781,342,820,33.333333333333336,-0.357,0.026,0.941
177174,1755602881561,21.1,1.55,-21.24,795,920,778,325,814,34.48275862068966,-0.356,0.026,0.942
177204,1755602881591,21.09,1.54,-21.25,797,915,773,398,811,33.333333333333336,-0.356,0.025,0.943
177233,1755602881620,21.07,1.53,-21.25,799,909,776,432,813,34.48275862068966,-0.356,0.025,0.943
177262,1755602881649,21.07,1.51,-21.26,793,918,775,373,817,34.48275862068966,-0.357,0.024,0.943
177292,1755602881679,21.07,1.5,-21.25,798,911,775,326,819,33.333333333333336,-0.358,0.024,0.944
177321,1755602881709,21.08,1.51,-21.25,794,910,776,371,811,34.48275862068966,-0.358,0.024,0.944
177351,1755602881738,21.08,1.54,-21.24,796,918,766,415,816,33.333333333333336,-0.358,0.025,0.942
177381,1755602881768,21.08,1.52,-21.24,801,903,772,400,809,33.333333333333336,-0.356,0.026,0.941
177411,1755602881797,21.06,1.49,-21.26,796,907,775,329,814,33.333333333333336,-0.355,0.027,0.942
177440,1755602881827,21.06,1.47,-21.29,796,910,778,346,814,34.48275862068966,-0.355,0.026,0.944
177469,1755602881856,21.05,1.47,-21.31,796,921,773,407,811,34.48275862068966,-0.356,0.024,0.944
177499,1755602881886,21.07,1.46,-21.32,794,913,777,421,810,33.333333333333336,-0.356,0.023,0.943
177528,1755602881915,21.06,1.46,-21.31,798,910,775,343,818,34.48275862068966,-0.358,0.022,0.944
177558,1755602881945,21.06,1.45,-21.3,796,919,774,328,812,33.333333333333336,-0.357,0.022,0.944
177587,1755602881974,21.09,1.45,-21.3,793,914,765,386,807,34.48275862068966,-0.355,0.024,0.944
177617,1755602882003,21.1,1.45,-21.32,794,916,772,411,815,33.333333333333336,-0.355,0.024,0.943
177646,1755602882033,21.13,1.44,-21.32,798,919,781,376,813,34.48275862068966,-0.357,0.023,0.943
177675,1755602882062,21.15,1.44,-21.33,801,922,776,318,810,34.48275862068966,-0.356,0.024,0.942
177705,1755602882092,21.14,1.43,-21.35,794,912,773,347,813,33.333333333333336,-0.354,0.026,0.94
177735,1755602882121,21.13,1.4,-21.38,798,907,776,427,813,33.333333333333336,-0.355,0.025,0.94
177764,1755602882151,21.11,1.39,-21.4,797,912,769,402,813,34.48275862068966,-0.358,0.02,0.943
177793,1755602882180,21.12,1.4,-21.39,794,927,777,337,811,34.48275862068966,-0.358,0.019,0.944
177823,1755602882210,21.1,1.44,-21.38,798,909,776,360,813,33.333333333333336,-0.357,0.021,0.943
177852,1755602882240,21.09,1.46,-21.39,791,916,772,421,814,34.48275862068966,-0.355,0.022,0.941
177882,1755602882269,21.08,1.45,-21.4,795,913,779,413,812,33.333333333333336,-0.355,0.023,0.941
177912,1755602882298,21.09,1.44,-21.41,795,909,770,355,811,33.333333333333336,-0.356,0.025,0.942
177941,1755602882328,21.08,1.45,-21.42,800,908,774,326,813,34.48275862068966,-0.356,0.024,0.942
177970,1755602882357,21.08,1.44,-21.43,801,910,768,388,814,34.48275862068966,-0.356,0.023,0.941
