timestamp_ms,recv_timestamp_ms,pitch,roll,yaw,flex1,flex2,flex3,flex4,flex5,sampling_hz,accel_x,accel_y,accel_z
161513,1755602870526,21.03,5.06,-16.94,786,904,773,328,812,33.333333333333336,-0.348,0.082,0.946
161572,1755602870530,21.11,4.86,-16.78,786,898,770,431,813,33.333333333333336,-0.349,0.083,0.94
161601,1755602870532,21.14,4.84,-16.76,787,910,771,410,806,34.48275862068966,-0.352,0.082,0.943
161631,1755602870535,21.13,4.88,-16.68,789,915,776,290,806,33.333333333333336,-0.355,0.082,0.944
161660,1755602870537,21.14,4.94,-16.6,789,924,774,312,817,34.48275862068966,-0.356,0.081,0.942
161690,1755602870539,21.15,5.01,-16.49,790,919,772,383,813,33.333333333333336,-0.358,0.082,0.943
161749,1755602870543,21.29,5.04,-16.36,790,930,778,374,809,33.333333333333336,-0.355,0.083,0.941
161778,1755602870545,21.41,5.16,-16.33,789,923,780,334,818,34.48275862068966,-0.356,0.08,0.936
161808,1755602870547,21.44,5.24,-16.33,793,927,773,374,809,33.333333333333336,-0.357,0.082,0.933
161867,1755602870551,21.58,5.14,-16.3,784,924,778,402,813,33.333333333333336,-0.363,0.085,0.932
161897,1755602870553,21.54,5.02,-16.33,783,926,777,337,813,33.333333333333336,-0.361,0.085,0.93
161926,1755602870555,21.57,4.91,-16.39,788,922,779,342,812,34.48275862068966,-0.358,0.086,0.929
161955,1755602870557,21.7,4.73,-16.47,789,922,776,434,807,34.48275862068966,-0.359,0.084,0.932
162014,1755602870561,21.5,4.45,-16.51,791,927,771,338,818,34.48275862068966,-0.363,0.079,0.934
162044,1755602870563,21.48,4.36,-16.54,794,927,771,296,811,33.333333333333336,-0.363,0.078,0.937
162073,1755602870565,21.51,4.25,-16.59,789,927,772,392,812,34.48275862068966,-0.361,0.078,0.936
162132,1755602870569,21.69,3.94,-16.79,794,926,772,385,813,34.48275862068966,-0.36,0.073,0.932
162162,1755602870571,21.69,3.81,-16.83,798,932,775,296,815,33.333333333333336,-0.365,0.07,0.936
162191,1755602870573,21.64,3.65,-16.9,794,932,775,350,811,34.48275862068966,-0.365,0.066,0.937
162250,1755602870577,21.75,3.51,-17.04,799,928,768,386,812,34.48275862068966,-0.366,0.058,0.94
162279,1755602870579,21.73,3.54,-17.06,804,932,769,305,810,34.48275862068966,-0.368,0.056,0.942
165964,1755602870707,21.03,3.39,-18.11,805,924,775,354,822,0.5200208008320333,-0.355,0.054,0.939
165994,1755602870709,21.04,3.39,-18.11,804,929,771,316,814,33.333333333333336,-0.355,0.054,0.94
166053,1755602870713,21.04,3.41,-18.12,801,926,772,418,815,34.48275862068966,-0.354,0.054,0.94
166073,1755602870715,21.05,3.42,-18.12,805,926,772,369,812,50.0,-0.355,0.054,0.94
166132,1755602870719,21.05,3.39,-18.14,805,915,775,377,807,33.333333333333336,-0.355,0.054,0.939
166161,1755602870721,21.03,3.38,-18.14,804,918,772,327,810,34.48275862068966,-0.357,0.053,0.941
166191,1755602870723,21.02,3.38,-18.13,807,931,775,356,812,33.333333333333336,-0.356,0.053,0.942
166220,1755602870725,21.04,3.37,-18.13,806,930,777,412,808,34.48275862068966,-0.356,0.054,0.941
166250,1755602870727,21.03,3.37,-18.13,806,925,775,402,815,33.333333333333336,-0.355,0.054,0.94
166280,1755602870730,21.01,3.32,-18.15,806,928,774,337,810,33.333333333333336,-0.355,0.054,0.94
166309,1755602870732,21.01,3.28,-18.16,804,930,767,337,814,34.48275862068966,-0.356,0.052,0.941
166338,1755602870734,21.0,3.28,-18.16,804,924,775,401,811,34.48275862068966,-0.356,0.053,0.941
166368,1755602870754,20.99,3.25,-18.16,805,926,774,403,812,33.333333333333336,-0.356,0.053,0.941
166456,1755602870843,20.99,3.17,-18.2,795,918,768,374,809,34.48275862068966,-0.355,0.052,0.942
166476,1755602870863,20.97,3.17,-18.21,801,921,775,291,815,50.0,-0.354,0.052,0.941
166506,1755602870892,20.97,3.14,-18.22,802,932,766,379,820,33.333333333333336,-0.355,0.051,0.941
166535,1755602870921,20.96,3.11,-18.23,804,925,771,403,810,34.48275862068966,-0.355,0.05,0.941
166564,1755602870951,20.95,3.08,-18.24,805,924,775,367,810,34.48275862068966,-0.356,0.05,0.941
166653,1755602871039,20.92,3.02,-18.28,804,927,773,425,811,33.333333333333336,-0.355,0.049,0.942
166712,1755602871098,20.91,3.01,-18.3,801,919,776,338,813,33.333333333333336,-0.355,0.048,0.942
166741,1755602871128,20.91,3.02,-18.31,805,913,774,359,810,34.48275862068966,-0.354,0.048,0.942
166771,1755602871157,20.89,3.01,-18.32,795,922,781,433,811,33.333333333333336,-0.354,0.048,0.941
166800,1755602871187,20.88,3.0,-18.33,798,932,773,403,809,34.48275862068966,-0.355,0.048,0.941
166850,1755602871236,20.91,2.93,-18.35,801,924,771,414,814,47.61904761904762,-0.356,0.046,0.94
166879,1755602871265,20.92,2.9,-18.35,803,916,772,338,811,34.48275862068966,-0.356,0.046,0.94
166908,1755602871295,20.93,2.85,-18.36,800,926,773,336,814,34.48275862068966,-0.357,0.046,0.942
166938,1755602871324,20.93,2.86,-18.35,805,918,770,414,814,33.333333333333336,-0.356,0.045,0.944
166997,1755602871383,20.92,2.88,-18.35,805,928,777,348,818,33.333333333333336,-0.355,0.046,0.943
167026,1755602871413,20.92,2.88,-18.37,798,929,772,333,811,34.48275862068966,-0.353,0.047,0.943
167056,1755602871442,20.87,2.89,-18.39,803,928,770,388,810,33.333333333333336,-0.353,0.046,0.943
167085,1755602871472,20.85,2.91,-18.41,805,926,773,427,811,34.48275862068966,-0.353,0.046,0.943
167115,1755602871501,20.86,2.94,-18.43,801,912,776,392,810,33.333333333333336,-0.352,0.046,0.943
167144,1755602871531,20.85,2.93,-18.45,804,925,774,334,814,34.48275862068966,-0.352,0.046,0.941
167173,1755602871560,20.83,2.92,-18.47,807,926,779,353,812,34.48275862068966,-0.351,0.047,0.941
167262,1755602871650,20.85,2.89,-18.53,803,925,774,291,816,33.333333333333336,-0.35,0.046,0.942
167282,1755602871670,20.86,2.88,-18.55,795,921,771,402,818,50.0,-0.35,0.048,0.943
167342,1755602871729,20.85,2.86,-18.61,803,928,784,342,815,33.333333333333336,-0.35,0.047,0.942
167371,1755602871759,20.84,2.84,-18.65,805,915,776,412,809,34.48275862068966,-0.352,0.045,0.943
167401,1755602871788,20.85,2.8,-18.68,798,926,777,412,812,33.333333333333336,-0.355,0.043,0.941
167431,1755602871817,20.83,2.76,-18.71,802,927,772,364,822,33.333333333333336,-0.355,0.041,0.94
167460,1755602871847,20.83,2.74,-18.72,807,924,776,335,810,34.48275862068966,-0.357,0.04,0.942
167489,1755602871876,20.83,2.75,-18.7,801,910,776,367,815,34.48275862068966,-0.357,0.04,0.943
167519,1755602871906,20.84,2.77,-18.7,805,916,775,375,811,33.333333333333336,-0.354,0.042,0.943
167548,1755602871935,20.84,2.76,-18.71,805,913,774,368,814,34.48275862068966,-0.351,0.044,0.941
167578,1755602871965,20.83,2.74,-18.74,805,921,778,324,815,33.333333333333336,-0.351,0.044,0.942
167637,1755602872024,20.85,2.72,-18.78,807,921,773,434,809,34.48275862068966,-0.353,0.042,0.943
167667,1755602872053,20.87,2.72,-18.79,798,931,777,420,813,33.333333333333336,-0.353,0.042,0.942
167696,1755602872083,20.88,2.71,-18.8,797,917,777,333,812,34.48275862068966,-0.353,0.042,0.942
167726,1755602872112,20.87,2.7,-18.82,799,923,775,332,811,33.333333333333336,-0.352,0.042,0.942
167755,1755602872141,20.89,2.68,-18.85,799,922,778,410,803,34.48275862068966,-0.352,0.042,0.943
167784,1755602872171,20.91,2.68,-18.87,805,927,775,413,818,34.48275862068966,-0.353,0.041,0.944
167814,1755602872201,20.92,2.67,-18.87,807,922,771,358,810,33.333333333333336,-0.354,0.04,0.944
167843,1755602872230,20.94,2.65,-18.87,798,919,776,346,808,34.48275862068966,-0.355,0.039,0.942
167873,1755602872260,20.95,2.64,-18.86,798,931,771,365,811,33.333333333333336,-0.355,0.04,0.942
167903,1755602872290,20.95,2.63,-18.86,799,924,772,417,811,33.333333333333336,-0.355,0.04,0.942
167932,1755602872319,20.95,2.63,-18.85,801,916,773,361,811,34.48275862068966,-0.355,0.04,0.942
167962,1755602872348,20.95,2.62,-18.84,798,917,773,312,821,33.333333333333336,-0.355,0.04,0.943
167991,1755602872378,20.95,2.61,-18.84,805,930,770,333,815,34.48275862068966,-0.354,0.041,0.943
168020,1755602872407,20.98,2.58,-18.83,804,916,776,409,816,34.48275862068966,-0.353,0.041,0.943
168079,1755602872466,20.97,2.57,-18.82,799,919,774,331,815,34.48275862068966,-0.353,0.041,0.943
168109,1755602872495,20.98,2.57,-18.83,797,925,772,328,820,33.333333333333336,-0.353,0.041,0.943
168138,1755602872525,20.97,2.55,-18.83,801,921,775,390,813,34.48275862068966,-0.355,0.04,0.943
168168,1755602872555,20.98,2.54,-18.83,801,918,774,396,812,33.333333333333336,-0.356,0.04,0.943
168197,1755602872584,21.0,2.54,-18.82,800,929,773,365,816,34.48275862068966,-0.356,0.04,0.943
168227,1755602872614,21.0,2.54,-18.81,803,923,775,332,818,33.333333333333336,-0.356,0.041,0.943
168256,1755602872643,20.99,2.53,-18.81,806,927,779,343,814,34.48275862068966,-0.355,0.041,0.943
168286,1755602872672,20.96,2.53,-18.8,805,929,775,409,809,33.333333333333336,-0.355,0.04,0.943
168315,1755602872702,20.96,2.53,-18.79,802,925,769,384,812,34.48275862068966,-0.353,0.04,0.943
168345,1755602872731,20.96,2.53,-18.79,798,927,768,311,809,33.333333333333336,-0.354,0.04,0.943
168374,1755602872761,20.95,2.54,-18.78,803,923,775,324,814,34.48275862068966,-0.355,0.04,0.944
168404,1755602872791,20.97,2.55,-18.77,803,915,769,419,812,33.333333333333336,-0.354,0.041,0.944
168433,1755602872820,21.0,2.54,-18.76,796,923,770,402,811,34.48275862068966,-0.354,0.042,0.943
168493,1755602872880,20.98,2.5,-18.77,805,924,773,316,809,33.333333333333336,-0.352,0.042,0.943
168523,1755602872909,20.98,2.49,-18.78,803,924,780,361,807,33.333333333333336,-0.352,0.041,0.944
168552,1755602872939,20.99,2.51,-18.79,801,923,773,419,810,34.48275862068966,-0.353,0.041,0.944
168582,1755602872969,20.97,2.52,-18.8,796,922,772,396,811,33.333333333333336,-0.353,0.042,0.943
168611,1755602872998,20.98,2.52,-18.82,798,926,774,314,812,34.48275862068966,-0.353,0.042,0.942
168641,1755602873028,20.96,2.51,-18.85,801,924,773,350,813,33.333333333333336,-0.353,0.043,0.941
168670,1755602873057,20.96,2.48,-18.89,800,922,770,435,816,34.48275862068966,-0.354,0.042,0.942
168700,1755602873086,20.95,2.48,-18.91,793,915,780,429,815,33.333333333333336,-0.354,0.041,0.943
168759,1755602873145,20.94,2.47,-18.97,805,923,774,352,817,33.333333333333336,-0.354,0.041,0.942
168788,1755602873174,20.94,2.46,-19.0,793,927,771,418,813,34.48275862068966,-0.355,0.041,0.943
168817,1755602873204,20.93,2.44,-19.02,798,921,770,429,810,34.48275862068966,-0.355,0.04,0.942
168847,1755602873234,20.93,2.41,-19.04,796,918,779,365,821,33.333333333333336,-0.355,0.039,0.942
168906,1755602873292,20.92,2.37,-19.09,800,913,772,371,810,33.333333333333336,-0.354,0.039,0.943
168935,1755602873322,20.92,2.36,-19.11,797,927,765,418,814,34.48275862068966,-0.354,0.037,0.944
168965,1755602873352,20.93,2.36,-19.13,803,921,772,386,814,33.333333333333336,-0.354,0.037,0.944
168995,1755602873382,20.94,2.35,-19.15,798,921,771,285,815,33.333333333333336,-0.354,0.038,0.943
169024,1755602873411,20.95,2.34,-19.17,801,920,773,323,807,34.48275862068966,-0.354,0.037,0.943
169054,1755602873440,20.95,2.33,-19.18,798,927,775,419,804,33.333333333333336,-0.353,0.037,0.942
169113,1755602873499,20.97,2.32,-19.21,803,915,774,300,809,33.333333333333336,-0.356,0.036,0.941
169142,1755602873529,20.99,2.31,-19.21,807,917,779,320,813,34.48275862068966,-0.356,0.036,0.941
169172,1755602873558,20.99,2.3,-19.23,795,919,772,383,811,33.333333333333336,-0.355,0.037,0.942
