timestamp_ms,recv_timestamp_ms,pitch,roll,yaw,flex1,flex2,flex3,flex4,flex5,sampling_hz,accel_x,accel_y,accel_z
178000,1755602883055,21.07,1.42,-21.42,796,918,774,414,811,33.333333333333336,-0.356,0.022,0.941
178029,1755602883057,21.06,1.41,-21.42,792,913,779,380,817,34.48275862068966,-0.356,0.023,0.942
178059,1755602883058,21.07,1.42,-21.42,797,917,773,338,811,33.333333333333336,-0.356,0.022,0.943
178088,1755602883061,21.07,1.43,-21.41,793,915,778,353,806,34.48275862068966,-0.357,0.021,0.943
178118,1755602883062,21.08,1.44,-21.4,792,914,774,430,814,33.333333333333336,-0.358,0.021,0.942
178147,1755602883065,21.08,1.46,-21.37,797,912,776,399,816,34.48275862068966,-0.358,0.022,0.942
178177,1755602883066,21.11,1.45,-21.35,796,917,776,327,813,33.333333333333336,-0.357,0.024,0.941
178206,1755602883068,21.11,1.45,-21.35,793,910,776,340,810,34.48275862068966,-0.355,0.026,0.941
178236,1755602883070,21.13,1.41,-21.36,798,917,773,428,807,33.333333333333336,-0.353,0.026,0.941
178265,1755602883072,21.11,1.4,-21.39,793,920,771,399,815,34.48275862068966,-0.353,0.024,0.941
178295,1755602883074,21.11,1.39,-21.41,798,919,776,327,811,33.333333333333336,-0.355,0.023,0.943
178324,1755602883076,21.15,1.4,-21.41,797,913,766,330,818,34.48275862068966,-0.357,0.023,0.944
178383,1755602883081,21.17,1.42,-21.44,796,918,770,415,812,33.333333333333336,-0.357,0.023,0.942
178412,1755602883082,21.19,1.41,-21.44,793,920,781,323,816,34.48275862068966,-0.357,0.024,0.942
178442,1755602883084,21.19,1.42,-21.46,797,924,779,321,816,33.333333333333336,-0.356,0.025,0.942
178471,1755602883086,21.19,1.42,-21.48,798,919,777,361,811,34.48275862068966,-0.356,0.025,0.941
178501,1755602883088,21.19,1.41,-21.5,797,914,779,421,813,33.333333333333336,-0.356,0.025,0.941
178530,1755602883091,21.18,1.39,-21.51,793,917,777,381,815,34.48275862068966,-0.358,0.023,0.941
178559,1755602883092,21.17,1.39,-21.51,800,913,772,312,806,34.48275862068966,-0.359,0.021,0.942
178589,1755602883094,21.18,1.4,-21.5,799,916,776,335,812,33.333333333333336,-0.358,0.022,0.942
178619,1755602883096,21.18,1.41,-21.51,798,915,768,421,818,33.333333333333336,-0.357,0.024,0.941
178648,1755602883098,21.16,1.4,-21.53,794,912,774,427,818,34.48275862068966,-0.358,0.024,0.942
178677,1755602883101,21.19,1.44,-21.52,798,924,776,351,810,34.48275862068966,-0.358,0.023,0.942
178707,1755602883103,21.21,1.45,-21.54,800,912,777,349,814,33.333333333333336,-0.356,0.024,0.94
178736,1755602883123,21.21,1.45,-21.57,794,923,774,411,809,34.48275862068966,-0.357,0.024,0.94
178766,1755602883153,21.21,1.46,-21.58,794,915,774,421,808,33.333333333333336,-0.358,0.023,0.941
178796,1755602883183,21.21,1.46,-21.58,799,915,771,375,816,33.333333333333336,-0.358,0.023,0.941
178855,1755602883242,21.19,1.45,-21.58,797,921,772,370,812,33.333333333333336,-0.355,0.023,0.941
178884,1755602883271,21.21,1.43,-21.58,795,918,775,429,810,34.48275862068966,-0.356,0.024,0.942
178914,1755602883300,21.21,1.43,-21.59,799,906,779,391,820,33.333333333333336,-0.356,0.025,0.942
178943,1755602883330,21.23,1.41,-21.61,797,915,775,322,813,34.48275862068966,-0.357,0.025,0.941
178963,1755602883350,21.23,1.4,-21.61,792,920,769,401,814,50.0,-0.358,0.025,0.94
178993,1755602883380,21.23,1.39,-21.62,791,916,777,340,818,33.333333333333336,-0.359,0.023,0.941
179022,1755602883409,21.24,1.37,-21.62,797,922,777,343,813,34.48275862068966,-0.359,0.021,0.941
179052,1755602883439,21.22,1.37,-21.62,798,910,774,426,814,33.333333333333336,-0.359,0.021,0.941
179111,1755602883498,21.23,1.41,-21.63,796,911,779,351,808,33.333333333333336,-0.359,0.022,0.942
179140,1755602883527,21.22,1.41,-21.63,790,909,768,347,815,34.48275862068966,-0.357,0.023,0.94
179170,1755602883557,21.2,1.4,-21.64,795,920,769,404,810,33.333333333333336,-0.358,0.023,0.94
179199,1755602883586,21.21,1.4,-21.65,799,919,774,410,811,34.48275862068966,-0.358,0.022,0.941
179228,1755602883615,21.23,1.41,-21.66,796,919,774,352,808,34.48275862068966,-0.359,0.021,0.941
179258,1755602883645,21.24,1.4,-21.65,799,911,781,327,809,33.333333333333336,-0.359,0.02,0.94
179287,1755602883674,21.21,1.41,-21.63,795,916,772,371,807,34.48275862068966,-0.357,0.023,0.94
179317,1755602883704,21.21,1.39,-21.66,795,923,773,369,816,33.333333333333336,-0.356,0.025,0.941
179346,1755602883733,21.2,1.39,-21.67,792,916,779,365,809,34.48275862068966,-0.358,0.022,0.942
179376,1755602883763,21.19,1.42,-21.65,795,906,775,323,814,33.333333333333336,-0.358,0.021,0.942
179406,1755602883792,20.76,1.41,-21.65,798,911,774,354,813,33.333333333333336,-0.357,0.024,0.94
179435,1755602883822,20.74,1.39,-21.66,793,912,773,429,810,34.48275862068966,-0.356,0.025,0.941
179464,1755602883851,20.76,1.39,-21.68,797,915,775,397,812,34.48275862068966,-0.357,0.023,0.943
179494,1755602883880,20.8,1.4,-21.69,797,915,767,326,807,33.333333333333336,-0.358,0.022,0.943
179523,1755602883910,20.81,1.41,-21.69,801,915,777,348,812,34.48275862068966,-0.359,0.021,0.941
179553,1755602883940,20.81,1.4,-21.68,797,918,775,369,814,33.333333333333336,-0.358,0.022,0.941
179582,1755602883969,20.8,1.4,-21.7,796,919,779,384,812,34.48275862068966,-0.356,0.023,0.942
179612,1755602883999,20.8,1.41,-21.72,786,920,774,363,808,33.333333333333336,-0.356,0.022,0.943
179642,1755602884029,20.8,1.42,-21.72,797,908,774,332,812,33.333333333333336,-0.356,0.021,0.943
179701,1755602884088,20.86,1.41,-21.72,793,916,771,432,814,33.333333333333336,-0.359,0.023,0.941
179730,1755602884117,20.83,1.41,-21.71,799,915,774,394,812,34.48275862068966,-0.359,0.023,0.942
179760,1755602884147,20.79,1.42,-21.69,795,908,775,341,810,33.333333333333336,-0.358,0.023,0.943
179789,1755602884176,20.77,1.43,-21.68,793,909,774,339,811,34.48275862068966,-0.356,0.022,0.943
179819,1755602884205,20.8,1.43,-21.7,796,925,781,416,812,33.333333333333336,-0.356,0.021,0.944
179848,1755602884235,20.77,1.46,-21.68,798,913,774,405,810,34.48275862068966,-0.357,0.023,0.944
179878,1755602884264,20.75,1.48,-21.67,797,908,774,340,814,33.333333333333336,-0.355,0.025,0.944
179907,1755602884294,20.78,1.05,-21.68,799,923,769,344,809,34.48275862068966,-0.356,0.025,0.944
179936,1755602884323,20.77,1.06,-21.69,791,914,777,405,813,34.48275862068966,-0.355,0.026,0.943
179966,1755602884353,20.81,1.06,-21.7,798,907,775,378,813,33.333333333333336,-0.355,0.025,0.942
179995,1755602884382,20.85,1.04,-21.73,791,917,773,356,804,34.48275862068966,-0.355,0.024,0.943
180025,1755602884411,20.82,1.07,-21.73,788,910,774,331,808,33.333333333333336,-0.355,0.024,0.944
180054,1755602884441,20.85,1.07,-21.73,795,920,775,374,811,34.48275862068966,-0.355,0.024,0.943
180084,1755602884470,20.86,1.09,-21.73,796,915,773,420,808,33.333333333333336,-0.356,0.024,0.943
180113,1755602884500,20.85,1.1,-21.73,793,910,774,391,808,34.48275862068966,-0.357,0.025,0.942
180143,1755602884530,20.86,1.11,-21.72,796,911,776,320,811,33.333333333333336,-0.357,0.024,0.942
180202,1755602884589,20.85,1.13,-21.7,791,915,773,433,810,33.333333333333336,-0.357,0.025,0.943
180231,1755602884619,20.85,1.14,-21.68,802,918,773,405,812,34.48275862068966,-0.356,0.025,0.942
180261,1755602884649,20.82,1.16,-21.67,799,913,777,335,816,33.333333333333336,-0.356,0.025,0.942
180291,1755602884678,20.81,1.16,-21.67,798,923,769,321,810,33.333333333333336,-0.355,0.026,0.943
180320,1755602884707,20.78,1.18,-21.66,798,912,773,385,815,34.48275862068966,-0.354,0.027,0.942
180350,1755602884737,20.76,1.18,-21.66,799,915,774,415,816,33.333333333333336,-0.354,0.028,0.942
180380,1755602884767,20.75,1.17,-21.67,796,919,783,340,813,33.333333333333336,-0.353,0.028,0.942
180409,1755602884796,20.74,1.16,-21.69,795,912,776,303,812,34.48275862068966,-0.353,0.027,0.942
180468,1755602884855,20.7,1.16,-21.67,789,913,778,408,812,34.48275862068966,-0.356,0.025,0.944
180498,1755602884885,20.69,1.16,-21.64,793,915,773,388,810,33.333333333333336,-0.356,0.025,0.944
180518,1755602884905,20.68,1.16,-21.63,795,912,773,380,807,50.0,-0.354,0.026,0.943
180548,1755602884935,20.68,1.14,-21.63,797,920,771,397,817,33.333333333333336,-0.353,0.026,0.943
180578,1755602884965,20.68,1.13,-21.63,796,914,780,347,810,33.333333333333336,-0.352,0.026,0.943
180608,1755602884994,20.68,1.14,-21.63,797,912,774,339,813,33.333333333333336,-0.351,0.026,0.945
180637,1755602885024,20.67,1.18,-21.63,802,914,771,385,809,34.48275862068966,-0.352,0.026,0.945
180666,1755602885053,20.63,1.21,-21.63,794,910,773,435,813,34.48275862068966,-0.352,0.026,0.944
180696,1755602885083,20.65,1.18,-21.64,797,918,772,380,815,33.333333333333336,-0.351,0.025,0.942
180726,1755602885112,20.66,1.15,-21.64,797,913,774,323,808,33.333333333333336,-0.351,0.025,0.944
180755,1755602885142,20.66,1.17,-21.64,797,919,775,354,811,34.48275862068966,-0.351,0.025,0.945
180785,1755602885171,20.66,1.21,-21.65,796,912,776,433,808,33.333333333333336,-0.35,0.026,0.943
180814,1755602885201,20.67,1.2,-21.67,803,912,780,405,811,34.48275862068966,-0.349,0.025,0.942
180844,1755602885231,20.68,1.19,-21.68,792,915,770,336,811,33.333333333333336,-0.351,0.024,0.943
180873,1755602885260,20.68,1.2,-21.67,796,920,770,339,817,34.48275862068966,-0.352,0.025,0.944
180903,1755602885289,20.67,1.21,-21.67,797,915,771,413,808,33.333333333333336,-0.351,0.027,0.944
180932,1755602885319,20.65,1.2,-21.69,798,908,776,421,815,34.48275862068966,-0.35,0.027,0.943
180961,1755602885348,20.65,1.18,-21.71,799,915,777,357,806,34.48275862068966,-0.35,0.026,0.943
180991,1755602885378,20.63,1.19,-21.72,788,919,777,333,807,33.333333333333336,-0.351,0.025,0.945
181020,1755602885407,20.63,1.21,-21.72,796,921,776,399,819,34.48275862068966,-0.351,0.027,0.944
181050,1755602885437,20.65,1.2,-21.73,799,906,775,416,813,33.333333333333336,-0.351,0.026,0.943
181079,1755602885466,20.64,1.21,-21.74,802,918,775,377,821,34.48275862068966,-0.352,0.025,0.943
181109,1755602885496,20.68,1.21,-21.73,795,917,772,329,815,33.333333333333336,-0.352,0.025,0.944
181139,1755602885525,20.7,1.23,-21.72,793,909,771,352,805,33.333333333333336,-0.352,0.025,0.944
181168,1755602885555,20.7,1.24,-21.72,797,921,772,404,813,34.48275862068966,-0.351,0.026,0.944
181198,1755602885584,20.7,1.24,-21.72,797,916,775,392,812,33.333333333333336,-0.35,0.027,0.943
181227,1755602885614,20.71,1.23,-21.73,798,912,779,328,815,34.48275862068966,-0.35,0.026,0.944
181256,1755602885643,20.68,1.26,-21.73,790,923,773,334,812,34.48275862068966,-0.351,0.025,0.945
181286,1755602885673,20.66,1.29,-21.74,795,920,777,423,815,33.333333333333336,-0.351,0.024,0.944
181315,1755602885702,20.64,1.3,-21.74,794,926,779,399,809,34.48275862068966,-0.352,0.024,0.943
181345,1755602885731,20.62,1.31,-21.74,796,918,781,344,812,33.333333333333336,-0.351,0.025,0.943
181374,1755602885761,20.59,1.33,-21.72,795,919,776,330,815,34.48275862068966,-0.35,0.027,0.944
181433,1755602885820,20.58,1.36,-21.72,795,918,770,414,813,34.48275862068966,-0.348,0.028,0.943
181463,1755602885850,20.6,1.36,-21.74,796,898,772,376,817,33.333333333333336,-0.349,0.028,0.944
181492,1755602885879,20.58,1.35,-21.75,791,919,776,320,817,34.48275862068966,-0.349,0.027,0.944
181521,1755602885908,20.59,1.35,-21.76,796,920,772,356,809,34.48275862068966,-0.35,0.027,0.945
181551,1755602885938,20.59,1.38,-21.76,791,908,772,397,813,33.333333333333336,-0.349,0.028,0.944
181581,1755602885968,20.59,1.38,-21.77,793,917,770,388,819,33.333333333333336,-0.349,0.027,0.942
181640,1755602886027,20.58,1.36,-21.77,798,912,773,295,811,33.333333333333336,-0.351,0.026,0.945
181669,1755602886056,20.59,1.39,-21.77,797,915,774,385,814,34.48275862068966,-0.35,0.028,0.944
181699,1755602886085,20.59,1.41,-21.77,796,917,774,391,813,33.333333333333336,-0.35,0.028,0.943
181757,1755602886144,20.58,1.4,-21.79,799,912,776,333,812,34.48275862068966,-0.35,0.027,0.944
181816,1755602886203,20.59,1.39,-21.79,794,912,776,413,819,34.48275862068966,-0.35,0.027,0.944
181846,1755602886233,20.59,1.4,-21.8,797,908,771,363,810,33.333333333333336,-0.35,0.029,0.943
181875,1755602886262,20.59,1.41,-21.8,792,919,769,325,812,34.48275862068966,-0.349,0.028,0.943
181905,1755602886292,20.6,1.4,-21.82,797,911,780,365,806,33.333333333333336,-0.349,0.027,0.943
181934,1755602886321,20.62,1.39,-21.83,795,915,775,415,815,34.48275862068966,-0.349,0.027,0.944
181964,1755602886351,20.61,1.4,-21.84,795,914,772,409,810,33.333333333333336,-0.349,0.028,0.945
181993,1755602886380,20.62,1.41,-21.84,798,913,775,337,816,34.48275862068966,-0.35,0.027,0.944
182022,1755602886409,20.63,1.42,-21.84,796,923,775,340,815,34.48275862068966,-0.35,0.026,0.943
182081,1755602886468,20.64,1.41,-21.84,801,916,770,414,811,34.48275862068966,-0.349,0.028,0.943
182169,1755602886556,20.67,1.42,-21.85,797,916,774,424,806,34.48275862068966,-0.349,0.027,0.943
182199,1755602886586,20.69,1.41,-21.87,800,906,777,414,814,33.333333333333336,-0.349,0.027,0.943
182229,1755602886616,20.68,1.41,-21.87,794,909,771,346,809,33.333333333333336,-0.35,0.027,0.944
182258,1755602886645,20.7,1.41,-21.88,796,912,776,338,808,34.48275862068966,-0.35,0.027,0.945
182287,1755602886674,20.7,1.42,-21.88,792,918,775,382,812,34.48275862068966,-0.349,0.027,0.943
182317,1755602886704,20.68,1.42,-21.89,794,914,771,420,806,33.333333333333336,-0.349,0.027,0.943
182405,1755602886792,20.68,1.4,-21.89,795,926,771,351,811,34.48275862068966,-0.351,0.026,0.943
182435,1755602886821,20.69,1.4,-21.89,796,905,784,419,805,33.333333333333336,-0.35,0.027,0.944
182464,1755602886851,20.7,1.42,-21.9,797,921,769,397,811,34.48275862068966,-0.348,0.028,0.943
182494,1755602886881,20.68,1.42,-21.91,794,913,766,339,814,33.333333333333336,-0.348,0.028,0.942
182523,1755602886910,20.68,1.42,-21.93,795,915,769,342,810,34.48275862068966,-0.349,0.027,0.943
182553,1755602886940,20.68,1.42,-21.94,793,921,773,411,819,33.333333333333336,-0.35,0.026,0.944
182582,1755602886969,20.67,1.43,-21.95,789,911,773,409,815,34.48275862068966,-0.349,0.026,0.944
182612,1755602886999,20.68,1.42,-21.96,793,914,772,341,815,33.333333333333336,-0.349,0.027,0.944
182641,1755602887028,20.65,1.43,-21.98,795,914,774,335,810,34.48275862068966,-0.349,0.027,0.944
182671,1755602887057,20.65,1.43,-21.99,794,915,775,371,814,33.333333333333336,-0.35,0.027,0.944
182700,1755602887087,20.65,1.44,-21.99,798,912,775,437,811,34.48275862068966,-0.351,0.027,0.944
182729,1755602887116,20.64,1.43,-22.01,795,915,773,391,806,34.48275862068966,-0.35,0.026,0.944
182759,1755602887146,20.65,1.43,-22.02,795,909,772,336,810,33.333333333333336,-0.35,0.027,0.944
182818,1755602887205,20.64,1.44,-22.03,793,914,774,438,813,33.333333333333336,-0.351,0.026,0.946
182847,1755602887234,20.63,1.45,-22.03,795,907,771,412,822,34.48275862068966,-0.35,0.026,0.945
182877,1755602887263,20.65,1.45,-22.03,793,899,769,315,813,33.333333333333336,-0.349,0.026,0.944
182906,1755602887293,20.64,1.44,-22.04,798,911,774,337,814,34.48275862068966,-0.349,0.026,0.944
182935,1755602887322,20.63,1.44,-22.04,798,918,769,424,814,34.48275862068966,-0.349,0.026,0.946
182965,1755602887352,20.65,1.45,-22.06,795,913,775,413,816,33.333333333333336,-0.348,0.027,0.947
182994,1755602887381,20.67,1.46,-22.07,797,912,775,330,808,34.48275862068966,-0.349,0.027,0.946
183024,1755602887411,20.67,1.46,-22.08,797,913,771,323,814,33.333333333333336,-0.349,0.026,0.945
183083,1755602887470,20.65,1.46,-22.08,794,921,773,416,813,33.333333333333336,-0.349,0.026,0.946
183112,1755602887499,20.65,1.45,-22.08,794,905,774,381,820,34.48275862068966,-0.348,0.026,0.944
183171,1755602887558,20.64,1.44,-22.09,800,923,770,358,811,34.48275862068966,-0.349,0.027,0.946
183201,1755602887588,20.65,1.45,-22.09,796,916,778,413,810,33.333333333333336,-0.35,0.027,0.946
183230,1755602887617,20.65,1.46,-22.09,789,919,781,391,806,34.48275862068966,-0.348,0.027,0.945
183260,1755602887647,20.66,1.45,-22.11,798,909,779,324,821,33.333333333333336,-0.349,0.026,0.946
183289,1755602887676,20.64,1.45,-22.11,795,913,778,353,810,34.48275862068966,-0.349,0.026,0.947
183348,1755602887735,20.65,1.5,-22.11,794,912,780,422,811,34.48275862068966,-0.349,0.027,0.946
183378,1755602887765,20.65,1.49,-22.12,793,916,776,346,811,33.333333333333336,-0.348,0.027,0.945
183407,1755602887794,20.65,1.48,-22.14,800,918,773,330,817,34.48275862068966,-0.348,0.026,0.946
183437,1755602887824,20.63,1.5,-22.13,794,930,777,382,814,33.333333333333336,-0.349,0.026,0.947
183466,1755602887854,20.62,1.54,-22.12,798,924,775,416,812,34.48275862068966,-0.348,0.027,0.947
183496,1755602887883,20.61,1.55,-22.13,792,912,776,374,814,33.333333333333336,-0.348,0.027,0.946
183525,1755602887913,20.61,1.53,-22.14,794,916,780,309,820,34.48275862068966,-0.348,0.027,0.945
183555,1755602887942,20.61,1.54,-22.13,795,913,774,327,813,33.333333333333336,-0.349,0.027,0.946
183585,1755602887972,20.62,1.57,-22.13,789,912,779,408,810,33.333333333333336,-0.349,0.027,0.947
183614,1755602888001,20.63,1.59,-22.13,791,904,778,414,816,34.48275862068966,-0.35,0.026,0.946
183644,1755602888030,20.62,1.6,-22.13,799,914,770,332,820,33.333333333333336,-0.349,0.026,0.945
183673,1755602888060,20.64,1.6,-22.12,794,916,766,332,808,34.48275862068966,-0.35,0.027,0.945
183702,1755602888090,20.64,1.62,-22.11,800,921,779,396,813,34.48275862068966,-0.349,0.029,0.946
183732,1755602888119,20.64,1.63,-22.11,793,917,776,388,812,33.333333333333336,-0.346,0.029,0.945
183762,1755602888149,20.19,1.6,-22.13,794,915,784,345,812,33.333333333333336,-0.346,0.029,0.946
183791,1755602888178,20.2,1.59,-22.14,793,907,772,312,811,34.48275862068966,-0.348,0.028,0.947
183821,1755602888208,20.21,1.6,-22.14,799,916,776,369,805,33.333333333333336,-0.349,0.028,0.946
183850,1755602888237,20.2,1.61,-22.13,791,913,774,418,814,34.48275862068966,-0.35,0.028,0.944
183880,1755602888266,20.2,1.59,-22.13,792,903,774,378,805,33.333333333333336,-0.349,0.029,0.943
183909,1755602888296,20.21,1.59,-22.13,793,913,773,326,810,34.48275862068966,-0.349,0.029,0.946
183939,1755602888325,20.22,1.62,-22.13,794,918,773,360,813,33.333333333333336,-0.348,0.029,0.947
183998,1755602888384,20.22,1.73,-22.15,798,912,774,414,813,33.333333333333336,-0.346,0.03,0.945
184027,1755602888414,20.24,1.73,-22.15,800,912,781,286,819,34.48275862068966,-0.348,0.03,0.945
184056,1755602888444,20.26,1.74,-22.16,794,914,778,330,820,34.48275862068966,-0.349,0.03,0.945
184076,1755602888464,20.28,1.75,-22.16,794,912,776,318,817,50.0,-0.349,0.031,0.945
184106,1755602888493,20.31,1.75,-22.17,795,914,774,341,812,33.333333333333336,-0.348,0.031,0.945
184135,1755602888522,20.3,1.76,-22.18,798,911,779,417,811,34.48275862068966,-0.348,0.031,0.945
184165,1755602888552,20.3,1.76,-22.19,790,905,774,407,812,33.333333333333336,-0.348,0.031,0.945
184194,1755602888581,20.31,1.76,-22.2,797,919,775,346,815,34.48275862068966,-0.349,0.03,0.945
184224,1755602888611,20.31,1.76,-22.19,797,913,773,344,807,33.333333333333336,-0.349,0.031,0.944
184253,1755602888640,20.33,1.75,-22.2,797,915,773,397,804,34.48275862068966,-0.348,0.031,0.944
184283,1755602888670,20.33,1.73,-22.21,798,911,774,426,816,33.333333333333336,-0.348,0.031,0.944
184312,1755602888699,20.34,1.73,-22.22,793,913,776,367,809,34.48275862068966,-0.348,0.031,0.945
184342,1755602888728,20.37,1.72,-22.23,794,920,775,334,806,33.333333333333336,-0.348,0.031,0.945
184371,1755602888758,20.38,1.71,-22.24,797,917,766,376,810,34.48275862068966,-0.348,0.031,0.945
184401,1755602888787,20.39,1.71,-22.25,797,926,775,428,816,33.333333333333336,-0.348,0.03,0.945
184430,1755602888817,20.38,1.72,-22.26,796,914,768,404,815,34.48275862068966,-0.349,0.03,0.946
184459,1755602888846,20.4,1.74,-22.27,790,926,780,329,807,34.48275862068966,-0.35,0.03,0.946
184489,1755602888876,20.42,1.74,-22.27,792,919,774,361,811,33.333333333333336,-0.35,0.031,0.945
184518,1755602888905,20.43,1.72,-22.28,800,916,776,419,811,34.48275862068966,-0.349,0.031,0.944
184548,1755602888934,20.42,1.71,-22.3,805,923,772,418,814,33.333333333333336,-0.349,0.031,0.945
184606,1755602888993,20.43,1.73,-22.31,800,916,774,348,810,34.48275862068966,-0.35,0.03,0.946
184636,1755602889023,20.45,1.73,-22.32,799,910,776,428,809,33.333333333333336,-0.35,0.03,0.944
184665,1755602889052,20.45,1.7,-22.33,800,907,775,421,815,34.48275862068966,-0.351,0.03,0.944
184695,1755602889082,20.44,1.69,-22.33,800,910,772,307,814,33.333333333333336,-0.351,0.03,0.946
184724,1755602889111,20.46,1.71,-22.33,795,911,777,304,809,34.48275862068966,-0.35,0.03,0.947
184754,1755602889141,20.47,1.72,-22.33,793,917,775,359,806,33.333333333333336,-0.349,0.03,0.945
184784,1755602889171,20.47,1.7,-22.36,788,903,769,369,803,33.333333333333336,-0.348,0.031,0.945
184804,1755602889191,20.47,1.7,-22.37,799,916,767,339,815,50.0,-0.349,0.03,0.945
184833,1755602889221,20.48,1.71,-22.39,794,914,776,411,810,34.48275862068966,-0.351,0.029,0.947
184863,1755602889250,20.49,1.73,-22.39,797,911,774,391,815,33.333333333333336,-0.35,0.029,0.946
184893,1755602889280,20.48,1.73,-22.4,793,918,777,327,814,33.333333333333336,-0.349,0.03,0.944
184922,1755602889309,20.48,1.69,-22.41,794,918,771,346,814,34.48275862068966,-0.349,0.03,0.944
184952,1755602889339,20.48,1.68,-22.42,797,918,774,421,807,33.333333333333336,-0.349,0.029,0.946
184981,1755602889368,20.48,1.69,-22.42,791,911,778,404,807,34.48275862068966,-0.349,0.03,0.947
185010,1755602889397,20.47,1.7,-22.43,791,915,770,322,819,34.48275862068966,-0.349,0.029,0.945
185040,1755602889427,20.48,1.68,-22.43,792,923,772,338,809,33.333333333333336,-0.35,0.029,0.945
185069,1755602889456,20.48,1.67,-22.42,790,913,774,422,814,34.48275862068966,-0.35,0.029,0.945
185099,1755602889486,20.5,1.66,-22.43,794,914,776,427,815,33.333333333333336,-0.35,0.029,0.946
185129,1755602889516,20.5,1.67,-22.44,796,918,779,372,813,33.333333333333336,-0.35,0.029,0.946
185159,1755602889546,20.49,1.68,-22.43,794,907,778,330,808,33.333333333333336,-0.351,0.028,0.946
185188,1755602889575,20.5,1.69,-22.43,799,913,775,373,812,34.48275862068966,-0.351,0.029,0.946
185218,1755602889604,20.5,1.69,-22.43,796,911,775,416,817,33.333333333333336,-0.351,0.029,0.946
185247,1755602889634,20.49,1.71,-22.44,794,912,766,398,815,34.48275862068966,-0.35,0.03,0.945
185276,1755602889663,20.5,1.69,-22.46,799,913,769,315,817,34.48275862068966,-0.35,0.03,0.946
185306,1755602889693,20.5,1.7,-22.47,797,917,774,348,809,33.333333333333336,-0.349,0.029,0.947
185335,1755602889722,20.5,1.71,-22.47,791,914,771,429,810,34.48275862068966,-0.349,0.028,0.947
185364,1755602889751,20.51,1.72,-22.47,792,918,775,410,812,34.48275862068966,-0.348,0.029,0.947
185424,1755602889811,20.5,1.71,-22.48,797,911,774,342,810,33.333333333333336,-0.349,0.029,0.946
185483,1755602889869,20.5,1.72,-22.47,798,908,773,416,812,33.333333333333336,-0.349,0.029,0.947
185512,1755602889899,20.5,1.73,-22.47,800,916,772,368,817,34.48275862068966,-0.349,0.029,0.946
185541,1755602889928,20.51,1.72,-22.47,797,913,772,345,811,34.48275862068966,-0.349,0.029,0.946
185571,1755602889958,20.52,1.72,-22.46,794,907,773,389,814,33.333333333333336,-0.349,0.029,0.947
185600,1755602889987,20.52,1.74,-22.46,790,918,773,412,816,34.48275862068966,-0.349,0.029,0.948
185629,1755602890016,20.53,1.77,-22.46,794,927,775,376,816,34.48275862068966,-0.349,0.03,0.947
185659,1755602890045,20.54,1.76,-22.45,796,912,771,321,817,33.333333333333336,-0.349,0.03,0.945
185688,1755602890075,20.52,1.76,-22.46,794,917,775,367,815,34.48275862068966,-0.347,0.03,0.946
185718,1755602890104,20.54,1.74,-22.48,795,910,772,407,805,33.333333333333336,-0.349,0.03,0.947
185747,1755602890134,20.54,1.75,-22.48,788,911,777,389,815,34.48275862068966,-0.35,0.03,0.947
185776,1755602890163,20.56,1.76,-22.47,799,919,775,329,818,34.48275862068966,-0.35,0.031,0.946
185806,1755602890193,20.57,1.74,-22.45,798,900,775,334,809,33.333333333333336,-0.35,0.031,0.945
185836,1755602890223,20.58,1.72,-22.45,791,903,773,414,812,33.333333333333336,-0.349,0.031,0.944
185865,1755602890252,20.61,1.69,-22.46,798,907,774,402,816,34.48275862068966,-0.348,0.031,0.945
185895,1755602890281,20.6,1.69,-22.47,797,905,780,335,811,33.333333333333336,-0.349,0.031,0.946
185924,1755602890311,20.6,1.7,-22.47,798,905,772,328,816,34.48275862068966,-0.349,0.03,0.946
185953,1755602890341,20.63,1.7,-22.47,800,903,779,395,822,34.48275862068966,-0.351,0.03,0.945
185983,1755602890370,20.61,1.72,-22.47,796,915,769,414,816,33.333333333333336,-0.351,0.03,0.944
186013,1755602890400,20.61,1.7,-22.47,794,914,779,365,812,33.333333333333336,-0.351,0.03,0.944
186042,1755602890429,20.63,1.7,-22.47,794,917,771,312,814,34.48275862068966,-0.351,0.03,0.945
186071,1755602890458,20.64,1.71,-22.48,798,916,776,375,811,34.48275862068966,-0.35,0.03,0.945
186101,1755602890488,20.63,1.71,-22.48,790,914,775,422,817,33.333333333333336,-0.349,0.031,0.944
186130,1755602890517,20.63,1.69,-22.5,800,904,770,361,814,34.48275862068966,-0.349,0.03,0.945
186160,1755602890547,20.63,1.7,-22.51,796,918,779,273,813,33.333333333333336,-0.35,0.031,0.945
186189,1755602890576,20.64,1.69,-22.53,793,910,774,324,813,34.48275862068966,-0.351,0.029,0.944
186219,1755602890606,20.65,1.67,-22.52,800,910,772,412,810,33.333333333333336,-0.351,0.029,0.944
186248,1755602890636,20.64,1.67,-22.52,794,920,770,411,809,34.48275862068966,-0.35,0.03,0.944
186278,1755602890665,20.64,1.67,-22.53,792,915,775,340,815,33.333333333333336,-0.349,0.03,0.944
186308,1755602890694,20.63,1.67,-22.55,785,915,779,323,805,33.333333333333336,-0.348,0.03,0.945
186337,1755602890724,20.64,1.67,-22.58,792,909,778,394,811,34.48275862068966,-0.349,0.029,0.945
186366,1755602890754,20.64,1.66,-22.59,797,910,771,422,807,34.48275862068966,-0.351,0.028,0.945
186396,1755602890783,20.65,1.68,-22.6,795,911,773,392,819,33.333333333333336,-0.351,0.029,0.944
186426,1755602890813,20.65,1.67,-22.61,797,916,773,332,809,33.333333333333336,-0.35,0.03,0.943
186455,1755602890842,20.63,1.65,-22.63,792,915,772,309,820,34.48275862068966,-0.351,0.029,0.943
186485,1755602890872,20.63,1.64,-22.64,799,922,774,409,812,33.333333333333336,-0.351,0.028,0.945
186514,1755602890901,20.61,1.65,-22.64,796,914,780,391,810,34.48275862068966,-0.35,0.029,0.945
186544,1755602890931,20.62,1.66,-22.66,803,920,767,332,817,33.333333333333336,-0.349,0.029,0.944
186573,1755602890960,20.59,1.65,-22.68,798,911,778,348,813,34.48275862068966,-0.348,0.029,0.944
186603,1755602890990,20.59,1.63,-22.7,788,915,772,419,808,33.333333333333336,-0.348,0.029,0.944
186632,1755602891019,20.59,1.61,-22.72,796,916,771,427,814,34.48275862068966,-0.35,0.029,0.944
186662,1755602891049,20.6,1.6,-22.73,793,913,771,355,813,33.333333333333336,-0.351,0.027,0.945
186721,1755602891108,20.59,1.62,-22.72,796,923,775,381,815,33.333333333333336,-0.351,0.027,0.944
186751,1755602891138,20.59,1.62,-22.72,792,909,778,371,810,33.333333333333336,-0.351,0.026,0.945
186780,1755602891167,20.6,1.63,-22.71,803,915,778,382,815,34.48275862068966,-0.35,0.027,0.944
