timestamp_ms,recv_timestamp_ms,pitch,roll,yaw,flex1,flex2,flex3,flex4,flex5,sampling_hz,accel_x,accel_y,accel_z
99197,1755607229546,33.45,-157.3,-24.01,793,778,843,351,880,34.48275862068966,-0.578,-0.318,-0.757
99227,1755607229548,33.41,-157.23,-23.95,792,770,839,387,876,33.333333333333336,-0.574,-0.318,-0.763
99247,1755607229550,33.44,-157.24,-23.95,791,768,837,365,878,50.0,-0.574,-0.316,-0.763
99276,1755607229552,33.37,-157.23,-23.98,794,774,842,404,877,34.48275862068966,-0.57,-0.312,-0.763
99306,1755607229554,33.23,-157.22,-24.03,797,772,842,397,878,33.333333333333336,-0.575,-0.31,-0.762
99326,1755607229556,33.14,-157.21,-24.05,796,776,843,356,878,50.0,-0.576,-0.311,-0.76
99356,1755607229558,33.17,-157.26,-24.06,793,774,836,386,873,33.333333333333336,-0.586,-0.317,-0.753
99386,1755607229561,33.29,-157.21,-23.96,790,774,841,358,872,33.333333333333336,-0.589,-0.318,-0.746
99415,1755607229562,33.52,-157.14,-23.86,789,774,840,340,880,34.48275862068966,-0.59,-0.314,-0.744
99445,1755607229564,33.7,-157.03,-23.8,796,778,843,352,876,33.333333333333336,-0.583,-0.311,-0.752
99475,1755607229566,33.78,-157.04,-23.8,793,777,841,391,876,33.333333333333336,-0.578,-0.312,-0.76
99504,1755607229568,33.76,-157.09,-23.83,794,777,836,387,877,34.48275862068966,-0.576,-0.314,-0.761
99534,1755607229570,33.74,-157.09,-23.83,792,776,841,309,876,33.333333333333336,-0.58,-0.315,-0.755
99564,1755607229573,33.84,-157.04,-23.81,795,775,840,331,879,33.333333333333336,-0.579,-0.315,-0.759
99594,1755607229575,33.92,-157.04,-23.81,795,774,841,364,882,33.333333333333336,-0.576,-0.316,-0.762
99624,1755607229577,33.92,-157.08,-23.85,795,772,839,399,876,33.333333333333336,-0.576,-0.314,-0.765
99653,1755607229579,33.83,-157.08,-23.89,797,779,838,382,877,34.48275862068966,-0.573,-0.311,-0.762
99683,1755607229581,33.75,-157.09,-23.94,791,772,842,347,876,33.333333333333336,-0.574,-0.312,-0.76
99712,1755607229588,33.62,-157.11,-23.98,793,775,839,362,878,34.48275862068966,-0.582,-0.317,-0.757
99771,1755607229647,33.43,-156.97,-23.92,793,769,837,400,876,34.48275862068966,-0.583,-0.315,-0.754
99801,1755607229676,33.42,-156.98,-23.91,797,777,843,351,873,33.333333333333336,-0.585,-0.317,-0.754
99830,1755607229706,33.43,-156.99,-23.88,796,774,842,346,876,34.48275862068966,-0.588,-0.318,-0.75
99860,1755607229735,33.36,-156.92,-23.83,794,776,839,388,879,33.333333333333336,-0.589,-0.316,-0.748
99889,1755607229765,33.29,-156.84,-23.78,792,771,841,366,878,34.48275862068966,-0.586,-0.317,-0.749
99919,1755607229795,33.4,-156.86,-23.8,791,774,842,367,875,33.333333333333336,-0.587,-0.315,-0.75
99948,1755607229824,33.51,-156.91,-23.82,796,779,840,336,881,34.48275862068966,-0.592,-0.316,-0.745
99978,1755607229854,33.59,-156.85,-23.78,789,775,841,356,876,33.333333333333336,-0.592,-0.319,-0.743
100008,1755607229883,33.7,-156.79,-23.73,795,769,840,410,879,33.333333333333336,-0.591,-0.317,-0.745
100037,1755607229913,33.79,-156.8,-23.73,797,773,838,389,870,34.48275862068966,-0.59,-0.316,-0.748
100067,1755607229942,33.76,-156.82,-23.77,793,769,840,351,878,33.333333333333336,-0.592,-0.315,-0.746
100096,1755607229972,33.7,-156.77,-23.76,795,767,839,345,878,34.48275862068966,-0.595,-0.317,-0.742
100156,1755607230032,33.83,-156.71,-23.74,796,775,840,386,878,33.333333333333336,-0.595,-0.315,-0.742
100186,1755607230061,33.79,-156.66,-23.74,795,774,835,372,881,33.333333333333336,-0.592,-0.315,-0.746
100215,1755607230091,33.69,-156.64,-23.78,795,774,840,341,878,34.48275862068966,-0.588,-0.316,-0.75
100245,1755607230120,33.65,-156.7,-23.83,793,772,844,380,879,33.333333333333336,-0.592,-0.317,-0.747
100274,1755607230150,33.73,-156.75,-23.83,791,775,840,406,874,34.48275862068966,-0.601,-0.32,-0.737
100304,1755607230179,33.9,-156.66,-23.76,796,773,839,403,872,33.333333333333336,-0.598,-0.319,-0.737
100333,1755607230209,34.07,-156.64,-23.73,795,778,835,313,884,34.48275862068966,-0.596,-0.319,-0.741
100363,1755607230238,34.12,-156.67,-23.73,796,778,843,324,876,33.333333333333336,-0.596,-0.317,-0.744
100392,1755607230268,34.07,-156.64,-23.75,792,776,841,386,879,34.48275862068966,-0.592,-0.315,-0.744
100422,1755607230298,34.07,-156.63,-23.78,797,777,844,406,872,33.333333333333336,-0.595,-0.317,-0.743
100451,1755607230327,34.12,-156.65,-23.8,794,773,840,362,874,34.48275862068966,-0.599,-0.318,-0.74
100481,1755607230357,34.18,-156.6,-23.78,789,773,837,347,876,33.333333333333336,-0.599,-0.318,-0.738
100511,1755607230387,34.27,-156.59,-23.76,796,777,843,382,880,33.333333333333336,-0.6,-0.318,-0.739
100541,1755607230416,34.33,-156.58,-23.77,795,772,842,415,881,33.333333333333336,-0.596,-0.317,-0.742
100570,1755607230446,34.33,-156.6,-23.77,796,782,839,389,873,34.48275862068966,-0.597,-0.319,-0.742
100600,1755607230475,34.39,-156.62,-23.77,796,773,838,352,876,33.333333333333336,-0.598,-0.32,-0.739
100629,1755607230505,34.47,-156.58,-23.75,797,773,839,351,879,34.48275862068966,-0.599,-0.318,-0.738
100659,1755607230535,34.52,-156.53,-23.72,794,777,845,395,875,33.333333333333336,-0.596,-0.317,-0.74
100689,1755607230564,34.55,-156.54,-23.73,794,773,843,391,887,33.333333333333336,-0.595,-0.318,-0.743
100718,1755607230594,34.57,-156.57,-23.75,794,774,837,365,876,34.48275862068966,-0.597,-0.319,-0.741
100748,1755607230624,34.61,-156.56,-23.76,793,778,840,350,878,33.333333333333336,-0.596,-0.317,-0.74
100777,1755607230653,34.65,-156.56,-23.76,792,779,833,372,876,34.48275862068966,-0.597,-0.318,-0.741
100807,1755607230683,34.71,-156.56,-23.74,797,773,840,413,875,33.333333333333336,-0.599,-0.32,-0.739
100837,1755607230712,34.83,-156.54,-23.7,795,772,834,387,881,33.333333333333336,-0.599,-0.318,-0.738
100866,1755607230742,34.9,-156.5,-23.68,793,771,839,342,876,34.48275862068966,-0.597,-0.317,-0.74
100896,1755607230771,34.89,-156.92,-23.67,796,776,841,361,876,33.333333333333336,-0.595,-0.317,-0.743
100925,1755607230801,34.91,-156.94,-23.69,794,773,840,409,876,34.48275862068966,-0.597,-0.317,-0.741
100955,1755607230831,34.96,-156.92,-23.69,798,776,841,399,875,33.333333333333336,-0.598,-0.318,-0.739
100985,1755607230861,35.0,-156.88,-23.67,795,772,841,373,880,33.333333333333336,-0.596,-0.318,-0.741
101015,1755607230890,35.05,-156.91,-23.67,791,767,837,360,877,33.333333333333336,-0.598,-0.318,-0.74
101044,1755607230920,35.06,-156.88,-23.68,795,772,842,367,876,34.48275862068966,-0.596,-0.316,-0.741
101074,1755607230949,35.09,-156.84,-23.66,795,775,842,410,878,33.333333333333336,-0.597,-0.318,-0.739
101103,1755607230979,35.13,-156.82,-23.66,799,779,839,391,881,34.48275862068966,-0.597,-0.317,-0.741
101133,1755607231008,35.15,-156.82,-23.65,796,777,842,357,873,33.333333333333336,-0.596,-0.318,-0.74
101162,1755607231038,35.2,-156.8,-23.65,793,778,839,349,873,34.48275862068966,-0.598,-0.318,-0.739
101192,1755607231068,35.22,-156.75,-23.65,794,776,843,394,877,33.333333333333336,-0.597,-0.317,-0.74
101222,1755607231097,35.25,-156.75,-23.66,795,779,839,390,875,33.333333333333336,-0.597,-0.318,-0.741
101251,1755607231128,35.23,-156.72,-23.63,796,778,837,360,872,34.48275862068966,-0.593,-0.318,-0.742
101272,1755607231147,35.28,-156.71,-23.65,790,772,840,392,872,47.61904761904762,-0.596,-0.318,-0.741
101301,1755607231177,35.29,-156.66,-23.63,797,773,834,366,883,34.48275862068966,-0.595,-0.32,-0.74
101331,1755607231207,35.34,-156.66,-23.63,793,772,838,346,875,33.333333333333336,-0.597,-0.319,-0.741
101361,1755607231237,35.35,-156.65,-23.64,790,768,838,386,879,33.333333333333336,-0.596,-0.318,-0.741
101391,1755607231267,35.35,-156.63,-23.65,795,770,839,401,876,33.333333333333336,-0.595,-0.319,-0.742
101470,1755607231345,35.42,-156.62,-23.66,798,776,843,367,879,33.333333333333336,-0.597,-0.32,-0.74
101499,1755607231375,35.43,-156.59,-23.67,794,770,842,343,876,34.48275862068966,-0.596,-0.319,-0.742
101529,1755607231404,35.41,-156.61,-23.68,796,773,836,362,882,33.333333333333336,-0.594,-0.319,-0.743
101558,1755607231434,35.47,-156.65,-23.71,791,774,839,396,874,34.48275862068966,-0.597,-0.321,-0.74
101617,1755607231493,35.58,-156.62,-23.7,797,769,838,360,873,34.48275862068966,-0.599,-0.321,-0.738
101647,1755607231523,35.66,-156.61,-23.68,795,774,839,338,878,33.333333333333336,-0.597,-0.319,-0.741
101677,1755607231552,35.67,-156.59,-23.69,789,769,843,378,876,33.333333333333336,-0.594,-0.32,-0.743
101706,1755607231582,35.66,-156.61,-23.69,796,770,842,409,878,34.48275862068966,-0.597,-0.322,-0.743
101766,1755607231642,35.86,-156.57,-23.58,796,767,845,357,880,33.333333333333336,-0.602,-0.321,-0.736
101796,1755607231671,35.97,-156.52,-23.53,796,778,841,367,876,33.333333333333336,-0.596,-0.318,-0.739
101825,1755607231701,36.07,-156.52,-23.53,795,776,842,418,879,34.48275862068966,-0.594,-0.319,-0.744
101855,1755607231730,36.02,-156.55,-23.54,792,770,833,412,874,33.333333333333336,-0.592,-0.319,-0.747
101884,1755607231760,35.96,-156.56,-23.56,797,772,838,369,881,34.48275862068966,-0.594,-0.318,-0.745
101914,1755607231790,35.96,-156.56,-23.58,789,771,835,361,874,33.333333333333336,-0.594,-0.318,-0.742
101934,1755607231809,36.0,-156.57,-23.59,796,775,834,387,878,50.0,-0.598,-0.32,-0.74
101963,1755607231839,36.02,-156.54,-23.58,794,766,839,355,877,34.48275862068966,-0.595,-0.318,-0.742
102023,1755607231898,35.99,-156.5,-23.58,795,779,843,416,880,33.333333333333336,-0.593,-0.32,-0.745
102052,1755607231928,35.99,-156.54,-23.58,794,774,837,390,874,34.48275862068966,-0.596,-0.32,-0.742
102082,1755607231958,36.0,-156.49,-23.55,796,776,845,350,880,33.333333333333336,-0.596,-0.32,-0.741
102112,1755607231987,36.04,-156.48,-23.53,789,767,841,369,875,33.333333333333336,-0.597,-0.32,-0.74
102200,1755607232076,36.07,-156.46,-23.5,794,772,842,360,876,34.48275862068966,-0.593,-0.318,-0.744
102259,1755607232135,36.05,-156.48,-23.51,797,777,838,410,875,34.48275862068966,-0.593,-0.318,-0.742
102289,1755607232165,36.1,-156.49,-23.53,793,777,841,406,877,33.333333333333336,-0.595,-0.317,-0.741
102319,1755607232195,36.11,-156.49,-23.53,797,774,848,401,873,33.333333333333336,-0.594,-0.318,-0.743
102349,1755607232225,36.12,-156.5,-23.53,794,774,839,342,879,33.333333333333336,-0.593,-0.317,-0.742
102378,1755607232254,36.11,-156.49,-23.55,796,771,839,349,879,34.48275862068966,-0.592,-0.318,-0.746
102408,1755607232284,36.06,-156.52,-23.56,793,778,838,354,876,33.333333333333336,-0.593,-0.319,-0.743
102438,1755607232313,36.06,-156.5,-23.55,798,778,836,379,875,33.333333333333336,-0.594,-0.318,-0.741
102467,1755607232343,36.08,-156.49,-23.54,793,768,841,339,879,34.48275862068966,-0.595,-0.319,-0.741
102497,1755607232373,36.11,-156.48,-23.52,795,773,842,348,880,33.333333333333336,-0.594,-0.319,-0.742
102527,1755607232402,36.12,-156.48,-23.5,795,779,841,394,876,33.333333333333336,-0.594,-0.319,-0.743
102556,1755607232432,36.11,-156.48,-23.5,797,774,838,410,882,34.48275862068966,-0.593,-0.32,-0.743
102586,1755607232462,36.13,-156.49,-23.49,797,772,842,386,879,33.333333333333336,-0.596,-0.319,-0.741
102616,1755607232492,36.17,-156.45,-23.49,790,773,841,344,884,33.333333333333336,-0.595,-0.317,-0.74
102646,1755607232522,36.16,-156.47,-23.51,792,773,841,361,882,33.333333333333336,-0.595,-0.319,-0.744
102675,1755607232551,36.12,-156.51,-23.52,796,775,842,394,872,34.48275862068966,-0.594,-0.319,-0.744
102705,1755607232581,36.11,-156.54,-23.53,790,779,839,405,873,33.333333333333336,-0.596,-0.318,-0.741
102735,1755607232610,36.15,-156.51,-23.51,795,775,840,369,875,33.333333333333336,-0.596,-0.319,-0.74
102764,1755607232640,36.23,-156.5,-23.48,794,770,840,355,879,34.48275862068966,-0.594,-0.317,-0.742
102794,1755607232670,36.28,-156.47,-23.48,796,768,839,381,879,33.333333333333336,-0.591,-0.315,-0.746
102824,1755607232699,36.17,-156.49,-23.53,790,774,840,398,881,33.333333333333336,-0.591,-0.316,-0.748
102853,1755607232729,36.09,-156.53,-23.57,796,768,841,400,883,34.48275862068966,-0.593,-0.316,-0.744
102883,1755607232758,36.13,-156.5,-23.57,796,772,837,310,882,33.333333333333336,-0.597,-0.319,-0.738
102912,1755607232788,36.18,-156.46,-23.54,795,768,843,333,873,34.48275862068966,-0.596,-0.321,-0.741
102942,1755607232817,36.15,-156.45,-23.5,793,779,842,392,879,33.333333333333336,-0.595,-0.319,-0.742
102971,1755607232847,36.13,-156.43,-23.51,793,772,842,408,879,34.48275862068966,-0.594,-0.316,-0.743
103001,1755607232876,36.12,-156.41,-23.51,793,767,845,354,875,33.333333333333336,-0.595,-0.317,-0.74
103030,1755607232906,36.17,-156.37,-23.48,795,779,839,351,878,34.48275862068966,-0.596,-0.319,-0.74
103060,1755607232936,36.19,-156.38,-23.47,795,772,838,387,876,33.333333333333336,-0.595,-0.32,-0.742
103090,1755607232965,36.21,-156.39,-23.48,800,772,838,408,878,33.333333333333336,-0.594,-0.319,-0.742
103119,1755607232995,36.22,-156.42,-23.49,795,773,842,383,878,34.48275862068966,-0.595,-0.317,-0.742
103149,1755607233025,36.23,-156.43,-23.52,792,773,840,343,877,33.333333333333336,-0.593,-0.317,-0.741
103179,1755607233054,36.24,-156.45,-23.55,796,775,839,352,879,33.333333333333336,-0.593,-0.318,-0.743
103208,1755607233084,36.24,-156.48,-23.6,794,771,839,397,878,34.48275862068966,-0.595,-0.318,-0.742
103238,1755607233114,36.22,-156.02,-23.63,793,777,840,396,882,33.333333333333336,-0.593,-0.317,-0.742
103267,1755607233143,36.21,-156.05,-23.65,796,777,839,344,870,34.48275862068966,-0.594,-0.318,-0.742
103297,1755607233173,36.13,-156.06,-23.66,797,773,839,344,875,33.333333333333336,-0.594,-0.318,-0.741
103327,1755607233203,36.1,-156.03,-23.67,795,777,839,342,877,33.333333333333336,-0.596,-0.32,-0.741
103347,1755607233222,36.09,-156.03,-23.66,793,768,838,353,877,50.0,-0.599,-0.321,-0.742
103376,1755607233252,36.15,-156.04,-23.62,791,772,842,391,875,34.48275862068966,-0.601,-0.322,-0.737
103435,1755607233311,36.28,-155.94,-23.51,797,770,839,369,870,34.48275862068966,-0.596,-0.32,-0.743
103465,1755607233340,36.24,-155.99,-23.51,796,776,838,356,875,33.333333333333336,-0.593,-0.319,-0.745
103494,1755607233370,36.21,-156.04,-23.54,797,774,841,363,880,34.48275862068966,-0.594,-0.318,-0.742
103524,1755607233400,36.21,-156.03,-23.56,797,773,843,408,872,33.333333333333336,-0.596,-0.318,-0.74
103583,1755607233459,36.23,-156.07,-23.57,793,773,838,366,876,34.48275862068966,-0.596,-0.32,-0.741
103613,1755607233488,36.22,-156.07,-23.56,795,777,834,368,876,33.333333333333336,-0.596,-0.32,-0.739
103642,1755607233519,36.26,-156.04,-23.53,792,768,843,407,879,34.48275862068966,-0.595,-0.32,-0.741
103662,1755607233538,36.29,-156.06,-23.53,791,774,838,367,873,50.0,-0.594,-0.321,-0.743
103692,1755607233568,36.3,-156.07,-23.52,794,775,839,390,880,33.333333333333336,-0.595,-0.319,-0.741
103722,1755607233598,36.3,-156.03,-23.5,791,773,840,393,878,33.333333333333336,-0.595,-0.318,-0.741
103751,1755607233627,36.34,-156.04,-23.5,790,774,841,353,876,34.48275862068966,-0.595,-0.318,-0.742
103781,1755607233657,36.35,-156.04,-23.5,795,774,840,332,877,33.333333333333336,-0.593,-0.32,-0.743
103811,1755607233687,36.34,-156.07,-23.5,795,775,837,363,874,33.333333333333336,-0.593,-0.32,-0.743
103841,1755607233717,36.31,-156.04,-23.48,794,774,840,412,879,33.333333333333336,-0.594,-0.317,-0.742
103871,1755607233746,36.33,-156.06,-23.49,798,774,839,391,874,33.333333333333336,-0.596,-0.32,-0.741
103900,1755607233776,36.36,-156.05,-23.47,794,773,841,365,878,34.48275862068966,-0.595,-0.32,-0.74
103930,1755607233806,36.36,-156.0,-23.45,797,769,840,354,879,33.333333333333336,-0.594,-0.324,-0.744
103960,1755607233835,36.34,-156.01,-23.45,791,775,843,377,880,33.333333333333336,-0.592,-0.325,-0.746
103989,1755607233865,36.31,-156.05,-23.46,791,781,840,399,875,34.48275862068966,-0.593,-0.323,-0.743
104019,1755607233895,36.35,-156.03,-23.45,794,772,836,378,875,33.333333333333336,-0.597,-0.322,-0.739
104049,1755607233925,36.39,-156.02,-23.43,794,766,838,339,877,33.333333333333336,-0.597,-0.323,-0.741
104079,1755607233954,36.37,-156.01,-23.39,795,774,837,346,878,33.333333333333336,-0.595,-0.322,-0.742
104108,1755607233984,36.36,-155.99,-23.38,796,775,838,363,879,34.48275862068966,-0.593,-0.319,-0.743
104138,1755607234014,36.33,-156.0,-23.4,797,776,841,371,882,33.333333333333336,-0.592,-0.319,-0.745
104167,1755607234043,36.32,-156.05,-23.41,795,778,839,358,873,34.48275862068966,-0.595,-0.321,-0.742
104197,1755607234073,36.36,-156.07,-23.4,790,776,840,341,875,33.333333333333336,-0.597,-0.321,-0.739
104227,1755607234103,36.39,-156.03,-23.35,796,778,844,391,878,33.333333333333336,-0.596,-0.319,-0.738
104256,1755607234132,36.44,-156.03,-23.36,794,779,841,418,875,34.48275862068966,-0.594,-0.318,-0.743
104286,1755607234161,36.39,-156.06,-23.36,791,767,839,386,875,33.333333333333336,-0.593,-0.318,-0.745
104315,1755607234191,36.37,-156.08,-23.37,792,775,841,343,877,34.48275862068966,-0.594,-0.318,-0.742
104345,1755607234221,36.39,-156.07,-23.36,795,774,841,368,870,33.333333333333336,-0.596,-0.319,-0.74
104365,1755607234241,36.4,-156.07,-23.35,791,777,838,363,879,50.0,-0.595,-0.318,-0.74
104424,1755607234301,36.38,-156.08,-23.32,794,775,841,403,876,34.48275862068966,-0.595,-0.319,-0.743
104444,1755607234320,36.38,-156.1,-23.32,791,776,836,359,876,50.0,-0.595,-0.318,-0.741
104474,1755607234350,36.44,-156.08,-23.29,795,767,839,390,874,33.333333333333336,-0.597,-0.317,-0.739
104503,1755607234379,36.48,-156.08,-23.29,795,774,841,394,877,34.48275862068966,-0.595,-0.317,-0.743
104533,1755607234409,36.45,-156.11,-23.29,791,776,839,341,879,33.333333333333336,-0.591,-0.318,-0.745
104563,1755607234439,36.4,-156.11,-23.3,791,766,836,352,877,33.333333333333336,-0.594,-0.317,-0.743
104592,1755607234468,36.38,-156.12,-23.31,797,768,836,409,876,34.48275862068966,-0.595,-0.317,-0.742
104622,1755607234498,36.43,-156.12,-23.31,791,776,840,412,875,33.333333333333336,-0.597,-0.318,-0.74
104652,1755607234527,36.47,-156.12,-23.31,791,779,843,373,871,33.333333333333336,-0.594,-0.318,-0.742
104710,1755607234586,36.35,-156.13,-23.33,796,769,840,353,874,34.48275862068966,-0.593,-0.318,-0.744
104740,1755607234616,36.33,-156.14,-23.33,793,773,838,404,873,33.333333333333336,-0.596,-0.317,-0.742
104770,1755607234646,36.39,-156.14,-23.32,795,778,839,389,882,33.333333333333336,-0.594,-0.318,-0.74
104799,1755607234675,36.42,-156.15,-23.3,797,767,840,360,876,34.48275862068966,-0.595,-0.319,-0.743
104829,1755607234705,36.37,-156.17,-23.31,794,769,841,366,876,33.333333333333336,-0.593,-0.317,-0.744
104859,1755607234734,36.34,-156.18,-23.33,792,775,838,383,879,33.333333333333336,-0.594,-0.317,-0.743
104888,1755607234764,36.34,-156.21,-23.33,790,773,835,388,879,34.48275862068966,-0.596,-0.318,-0.742
104948,1755607234824,36.41,-156.17,-23.28,797,776,837,351,879,33.333333333333336,-0.595,-0.318,-0.741
104977,1755607234853,36.39,-156.19,-23.28,794,767,841,380,877,34.48275862068966,-0.591,-0.317,-0.744
105007,1755607234883,36.34,-156.21,-23.31,795,773,844,414,873,33.333333333333336,-0.592,-0.316,-0.745
105037,1755607234912,36.3,-156.24,-23.32,790,775,846,392,874,33.333333333333336,-0.595,-0.317,-0.741
105066,1755607234942,36.36,-156.22,-23.29,796,773,840,319,880,34.48275862068966,-0.597,-0.319,-0.737
105096,1755607234972,36.43,-156.17,-23.24,791,775,841,340,878,33.333333333333336,-0.597,-0.318,-0.739
105125,1755607235001,36.42,-156.17,-23.23,791,777,838,403,880,34.48275862068966,-0.594,-0.316,-0.743
105155,1755607235031,36.32,-156.15,-23.25,796,776,842,399,880,33.333333333333336,-0.592,-0.316,-0.744
105185,1755607235060,36.29,-156.17,-23.26,793,771,841,331,875,33.333333333333336,-0.598,-0.318,-0.74
105214,1755607235090,36.36,-156.17,-23.25,796,774,838,335,873,34.48275862068966,-0.598,-0.319,-0.738
105244,1755607235120,36.42,-156.15,-23.22,793,776,838,377,877,33.333333333333336,-0.598,-0.318,-0.738
105274,1755607235150,36.42,-156.13,-23.2,791,767,836,423,878,33.333333333333336,-0.594,-0.319,-0.743
105294,1755607235170,36.42,-156.15,-23.21,794,774,839,375,875,50.0,-0.591,-0.319,-0.748
105324,1755607235199,36.32,-156.24,-23.25,790,773,839,403,879,33.333333333333336,-0.595,-0.317,-0.744
105353,1755607235229,36.31,-156.21,-23.26,797,774,840,389,875,34.48275862068966,-0.596,-0.315,-0.739
105383,1755607235259,36.37,-156.15,-23.23,794,771,840,349,882,33.333333333333336,-0.596,-0.32,-0.74
105413,1755607235289,36.39,-156.19,-23.21,795,777,841,349,875,33.333333333333336,-0.598,-0.321,-0.744
105442,1755607235319,36.37,-156.22,-23.2,794,774,839,382,879,34.48275862068966,-0.594,-0.317,-0.743
105463,1755607235338,36.37,-156.21,-23.2,796,774,838,352,875,47.61904761904762,-0.595,-0.316,-0.74
105522,1755607235398,36.39,-156.2,-23.19,795,773,839,401,878,33.333333333333336,-0.595,-0.319,-0.741
105542,1755607235418,36.43,-156.22,-23.19,793,778,839,366,873,50.0,-0.596,-0.318,-0.739
105572,1755607235447,36.4,-156.18,-23.2,797,773,835,382,875,33.333333333333336,-0.595,-0.315,-0.741
105601,1755607235477,36.36,-156.17,-23.21,793,770,838,311,876,34.48275862068966,-0.595,-0.315,-0.74
105630,1755607235506,36.41,-156.21,-23.24,792,773,841,312,872,34.48275862068966,-0.596,-0.318,-0.741
105660,1755607235536,36.4,-156.21,-23.23,789,774,838,349,876,33.333333333333336,-0.599,-0.319,-0.739
105720,1755607235595,36.51,-156.16,-23.21,793,766,838,382,871,33.333333333333336,-0.598,-0.318,-0.74
105749,1755607235625,36.53,-156.19,-23.19,791,772,840,332,875,34.48275862068966,-0.598,-0.318,-0.74
105779,1755607235655,36.56,-156.16,-23.19,794,776,840,359,876,33.333333333333336,-0.596,-0.318,-0.739
105808,1755607235684,36.54,-156.12,-23.19,791,777,836,397,877,34.48275862068966,-0.597,-0.318,-0.741
105838,1755607235714,36.54,-156.14,-23.19,795,775,844,395,874,33.333333333333336,-0.596,-0.318,-0.74
105868,1755607235743,36.56,-156.13,-23.18,796,772,843,355,875,33.333333333333336,-0.595,-0.319,-0.741
105897,1755607235773,36.58,-156.15,-23.18,796,771,843,344,876,34.48275862068966,-0.596,-0.32,-0.741
105927,1755607235803,36.6,-156.14,-23.18,793,775,843,367,877,33.333333333333336,-0.594,-0.319,-0.741
105986,1755607235862,36.55,-156.16,-23.18,792,773,841,369,873,34.48275862068966,-0.594,-0.32,-0.743
106016,1755607235892,36.54,-156.17,-23.17,797,778,837,336,880,33.333333333333336,-0.597,-0.32,-0.741
106045,1755607235921,36.55,-156.13,-23.15,791,771,839,360,874,34.48275862068966,-0.596,-0.318,-0.739
106075,1755607235951,36.55,-156.11,-23.14,796,776,833,399,879,33.333333333333336,-0.596,-0.318,-0.742
106105,1755607235980,36.52,-156.14,-23.15,796,774,842,398,875,33.333333333333336,-0.594,-0.319,-0.742
106134,1755607236010,36.49,-156.14,-23.15,791,774,839,360,879,34.48275862068966,-0.596,-0.318,-0.741
106164,1755607236040,36.53,-156.16,-23.16,794,771,840,341,876,33.333333333333336,-0.598,-0.319,-0.739
106194,1755607236069,36.56,-156.12,-23.13,796,780,838,359,874,33.333333333333336,-0.597,-0.32,-0.739
106223,1755607236099,36.56,-156.11,-23.12,797,779,838,388,875,34.48275862068966,-0.597,-0.317,-0.74
106253,1755607236129,36.56,-156.1,-23.14,797,777,841,341,878,33.333333333333336,-0.597,-0.319,-0.741
106283,1755607236158,36.52,-156.11,-23.16,796,772,844,327,880,33.333333333333336,-0.597,-0.32,-0.739
106312,1755607236188,36.61,-156.12,-23.15,796,774,842,352,872,34.48275862068966,-0.6,-0.319,-0.736
106371,1755607236247,36.66,-156.04,-23.1,798,775,834,369,874,34.48275862068966,-0.596,-0.32,-0.741
106401,1755607236277,36.59,-156.07,-23.11,796,778,840,354,869,33.333333333333336,-0.594,-0.318,-0.743
106431,1755607236306,36.58,-156.09,-23.13,790,776,840,359,876,33.333333333333336,-0.596,-0.32,-0.741
106460,1755607236336,36.61,-156.08,-23.12,794,775,840,394,878,34.48275862068966,-0.598,-0.32,-0.738
106480,1755607236356,36.64,-156.07,-23.1,797,777,842,326,879,50.0,-0.598,-0.32,-0.737
106510,1755607236385,36.66,-156.06,-23.09,795,770,841,372,874,33.333333333333336,-0.595,-0.32,-0.74
106539,1755607236415,36.66,-156.1,-23.11,789,769,839,356,877,34.48275862068966,-0.595,-0.319,-0.742
106569,1755607236445,36.66,-156.11,-23.16,793,769,838,318,876,33.333333333333336,-0.595,-0.32,-0.74
106628,1755607236503,36.78,-156.13,-23.11,791,767,842,350,878,33.333333333333336,-0.598,-0.322,-0.738
106657,1755607236534,36.82,-156.12,-23.07,796,767,839,383,871,34.48275862068966,-0.597,-0.321,-0.741
106687,1755607236564,36.78,-156.12,-23.07,791,777,842,386,876,33.333333333333336,-0.595,-0.319,-0.742
106708,1755607236584,36.76,-156.11,-23.07,797,779,840,385,872,47.61904761904762,-0.595,-0.32,-0.741
106738,1755607236613,36.77,-156.12,-23.05,789,770,837,377,871,33.333333333333336,-0.596,-0.32,-0.74
106767,1755607236643,36.83,-156.13,-23.03,795,774,838,341,877,34.48275862068966,-0.598,-0.319,-0.738
106797,1755607236673,36.84,-156.09,-23.02,795,773,841,299,879,33.333333333333336,-0.594,-0.318,-0.741
106827,1755607236702,36.78,-156.11,-23.05,795,773,838,353,871,33.333333333333336,-0.591,-0.317,-0.746
106856,1755607236732,36.7,-156.14,-23.06,799,774,844,386,878,34.48275862068966,-0.593,-0.318,-0.742
106886,1755607236762,36.75,-156.13,-23.06,794,768,839,385,879,33.333333333333336,-0.597,-0.32,-0.739
106915,1755607236791,36.76,-156.07,-23.03,795,776,840,352,878,34.48275862068966,-0.595,-0.32,-0.739
106945,1755607236821,36.75,-156.06,-23.01,797,772,840,381,876,33.333333333333336,-0.592,-0.32,-0.743
106975,1755607236850,36.77,-156.13,-23.02,794,777,837,420,875,33.333333333333336,-0.594,-0.32,-0.743
107004,1755607236880,36.81,-156.12,-23.01,796,774,841,407,877,34.48275862068966,-0.595,-0.318,-0.74
107034,1755607236910,36.8,-156.09,-23.0,793,775,832,371,877,33.333333333333336,-0.594,-0.319,-0.743
107064,1755607236940,36.77,-156.13,-23.01,792,773,836,344,878,33.333333333333336,-0.592,-0.318,-0.745
107084,1755607236960,36.76,-156.16,-23.02,793,768,833,354,875,50.0,-0.593,-0.318,-0.743
107143,1755607237019,36.78,-156.14,-23.02,799,775,838,338,878,34.48275862068966,-0.595,-0.319,-0.743
107173,1755607237049,36.78,-156.15,-23.01,799,772,842,369,877,33.333333333333336,-0.593,-0.319,-0.744
107203,1755607237078,36.78,-156.18,-23.02,793,772,843,368,875,33.333333333333336,-0.592,-0.319,-0.745
107232,1755607237108,36.78,-156.18,-23.03,796,771,839,330,875,34.48275862068966,-0.593,-0.319,-0.743
107262,1755607237137,36.75,-156.14,-23.03,792,774,840,362,883,33.333333333333336,-0.593,-0.318,-0.744
107291,1755607237167,36.71,-156.15,-23.01,797,774,842,413,878,34.48275862068966,-0.593,-0.32,-0.744
107321,1755607237197,36.73,-156.18,-23.02,797,781,842,410,879,33.333333333333336,-0.595,-0.32,-0.743
107351,1755607237226,36.74,-156.17,-22.99,789,772,846,362,873,33.333333333333336,-0.595,-0.32,-0.742
107410,1755607237286,36.79,-156.14,-22.97,796,770,836,391,875,33.333333333333336,-0.593,-0.318,-0.746
107440,1755607237315,36.74,-156.19,-23.0,797,773,839,398,874,33.333333333333336,-0.593,-0.319,-0.746
107469,1755607237345,36.7,-156.21,-23.01,792,775,836,387,879,34.48275862068966,-0.594,-0.32,-0.743
107499,1755607237374,36.74,-156.22,-23.01,796,774,839,336,880,33.333333333333336,-0.597,-0.32,-0.742
107528,1755607237404,36.74,-156.19,-22.98,796,778,840,372,880,34.48275862068966,-0.594,-0.319,-0.742
107558,1755607237434,36.75,-156.18,-22.97,790,771,841,422,877,33.333333333333336,-0.593,-0.32,-0.745
107578,1755607237454,36.7,-156.19,-22.97,792,773,844,371,874,50.0,-0.591,-0.32,-0.748
107608,1755607237484,36.67,-156.24,-22.98,798,776,842,420,878,33.333333333333336,-0.593,-0.32,-0.745
107638,1755607237513,36.66,-156.22,-22.96,794,775,841,413,874,33.333333333333336,-0.595,-0.319,-0.743
107667,1755607237543,36.67,-156.23,-22.94,794,772,841,362,880,34.48275862068966,-0.594,-0.32,-0.743
107697,1755607237573,36.68,-156.26,-22.94,797,772,836,356,878,33.333333333333336,-0.593,-0.319,-0.745
107727,1755607237603,36.64,-156.27,-22.94,796,779,841,401,874,33.333333333333336,-0.592,-0.317,-0.743
107757,1755607237633,36.61,-156.25,-22.97,797,777,836,369,877,33.333333333333336,-0.594,-0.318,-0.745
107787,1755607237662,36.57,-156.27,-23.01,789,768,833,369,872,33.333333333333336,-0.594,-0.317,-0.744
107816,1755607237692,36.54,-156.26,-23.03,794,773,839,336,883,34.48275862068966,-0.595,-0.318,-0.742
107846,1755607237722,36.54,-156.27,-23.03,796,774,841,360,880,33.333333333333336,-0.598,-0.32,-0.741
107876,1755607237752,36.56,-156.22,-23.0,794,771,834,395,871,33.333333333333336,-0.597,-0.319,-0.74
107906,1755607237781,36.6,-156.23,-23.0,793,771,832,403,878,33.333333333333336,-0.597,-0.32,-0.743
