timestamp_ms,recv_timestamp_ms,pitch,roll,yaw,flex1,flex2,flex3,flex4,flex5,sampling_hz,accel_x,accel_y,accel_z
99072,1755604392619,78.83,-49.39,-46.47,782,882,835,422,891,34.48275862068966,-0.983,-0.149,0.131
99102,1755604392621,78.85,-49.38,-46.48,788,879,840,415,885,33.333333333333336,-0.986,-0.15,0.131
99132,1755604392623,78.83,-49.35,-46.46,787,876,842,344,881,33.333333333333336,-0.986,-0.15,0.128
99161,1755604392625,78.81,-49.36,-46.46,787,883,840,343,885,34.48275862068966,-0.984,-0.149,0.127
99191,1755604392627,78.79,-49.38,-46.47,784,868,844,409,886,33.333333333333336,-0.985,-0.149,0.128
99221,1755604392629,78.74,-49.38,-46.46,782,869,846,424,892,33.333333333333336,-0.986,-0.149,0.129
99280,1755604392632,78.79,-49.34,-46.46,784,872,847,328,887,33.333333333333336,-0.984,-0.148,0.133
99330,1755604392637,78.78,-49.25,-46.48,786,874,844,357,895,33.333333333333336,-0.983,-0.147,0.132
99360,1755604392638,78.81,-49.26,-46.51,777,880,841,370,888,33.333333333333336,-0.984,-0.146,0.131
99389,1755604392640,78.81,-49.22,-46.53,783,873,845,428,879,34.48275862068966,-0.985,-0.147,0.131
99419,1755604392642,78.81,-49.21,-46.53,779,883,840,428,886,33.333333333333336,-0.985,-0.149,0.13
99478,1755604392646,78.83,-49.18,-46.56,783,873,838,313,892,33.333333333333336,-0.983,-0.147,0.132
99508,1755604392648,78.83,-49.15,-46.57,785,882,832,374,883,33.333333333333336,-0.986,-0.149,0.131
99537,1755604392650,78.79,-49.12,-46.54,779,875,850,416,900,34.48275862068966,-0.985,-0.148,0.127
99567,1755604392652,78.84,-49.12,-46.56,787,872,840,405,891,33.333333333333336,-0.985,-0.148,0.127
99597,1755604392654,78.83,-49.13,-46.55,783,879,839,319,890,33.333333333333336,-0.984,-0.148,0.13
99626,1755604392657,78.85,-49.1,-46.57,776,867,843,349,892,34.48275862068966,-0.984,-0.147,0.13
99656,1755604392659,78.85,-49.1,-46.59,780,878,845,426,887,33.333333333333336,-0.983,-0.148,0.13
99685,1755604392661,78.88,-49.07,-46.6,785,872,842,403,887,34.48275862068966,-0.985,-0.149,0.13
99705,1755604392663,78.86,-49.06,-46.59,780,877,838,392,890,50.0,-0.987,-0.149,0.131
99755,1755604392667,78.88,-49.05,-46.61,786,875,835,375,884,33.333333333333336,-0.985,-0.148,0.129
99784,1755604392669,78.87,-49.04,-46.62,788,872,843,379,896,34.48275862068966,-0.985,-0.148,0.13
99814,1755604392671,78.85,-49.03,-46.62,778,876,846,286,898,33.333333333333336,-0.985,-0.148,0.129
99843,1755604392674,78.86,-49.04,-46.63,786,880,843,315,888,34.48275862068966,-0.986,-0.149,0.129
99873,1755604392676,78.88,-49.04,-46.63,782,881,839,385,886,33.333333333333336,-0.986,-0.149,0.13
99903,1755604392678,78.88,-49.02,-46.62,783,874,845,402,889,33.333333333333336,-0.985,-0.148,0.129
99932,1755604392679,78.87,-49.01,-46.62,787,873,842,366,893,34.48275862068966,-0.984,-0.147,0.13
99961,1755604392682,78.86,-49.01,-46.63,785,872,838,338,893,34.48275862068966,-0.983,-0.147,0.13
100021,1755604392685,78.9,-49.01,-46.66,782,873,840,421,886,33.333333333333336,-0.985,-0.148,0.131
100051,1755604392688,78.91,-48.99,-46.67,782,886,843,363,892,33.333333333333336,-0.985,-0.148,0.13
100080,1755604392690,78.9,-48.97,-46.68,784,878,845,315,888,34.48275862068966,-0.985,-0.147,0.13
100139,1755604392694,78.92,-48.96,-46.7,782,881,841,406,891,33.333333333333336,-0.985,-0.147,0.131
100169,1755604392696,78.93,-48.94,-46.71,784,873,837,399,898,33.333333333333336,-0.985,-0.148,0.13
100228,1755604392700,78.94,-48.88,-46.74,782,869,845,324,887,33.333333333333336,-0.984,-0.147,0.131
100248,1755604392702,78.95,-48.87,-46.75,786,875,831,364,886,50.0,-0.984,-0.147,0.13
100277,1755604392704,78.96,-48.86,-46.76,776,875,850,339,892,34.48275862068966,-0.985,-0.149,0.13
100307,1755604392706,78.97,-48.86,-46.76,783,875,845,413,896,33.333333333333336,-0.986,-0.149,0.128
100336,1755604392708,78.98,-48.86,-46.76,783,872,844,438,883,34.48275862068966,-0.985,-0.15,0.129
100366,1755604392710,78.97,-48.85,-46.76,780,886,841,369,889,33.333333333333336,-0.984,-0.148,0.13
100396,1755604392713,78.97,-48.83,-46.76,779,881,850,348,897,33.333333333333336,-0.984,-0.148,0.13
100425,1755604392715,78.99,-48.82,-46.78,781,872,845,364,886,34.48275862068966,-0.985,-0.149,0.13
100455,1755604392716,78.98,-48.81,-46.78,783,877,849,431,893,33.333333333333336,-0.984,-0.149,0.129
100514,1755604392721,78.91,-48.76,-46.79,783,875,843,322,889,33.333333333333336,-0.987,-0.148,0.13
100543,1755604392722,78.83,-48.69,-46.77,781,887,848,336,883,34.48275862068966,-0.986,-0.148,0.13
100572,1755604392725,78.83,-48.68,-46.79,778,884,829,401,885,34.48275862068966,-0.982,-0.148,0.129
100602,1755604392727,78.84,-48.67,-46.82,791,876,850,418,885,33.333333333333336,-0.984,-0.148,0.13
100631,1755604392728,78.82,-48.69,-46.83,783,874,838,354,879,34.48275862068966,-0.986,-0.148,0.129
100661,1755604392731,78.83,-48.7,-46.83,777,876,841,330,884,33.333333333333336,-0.985,-0.149,0.13
100691,1755604392733,78.86,-48.68,-46.84,787,879,837,374,879,33.333333333333336,-0.984,-0.148,0.131
100720,1755604392735,78.88,-48.7,-46.86,784,872,840,416,886,34.48275862068966,-0.984,-0.148,0.133
100750,1755604392736,78.88,-48.7,-46.86,783,867,848,373,885,33.333333333333336,-0.985,-0.148,0.132
100779,1755604392739,78.88,-48.67,-46.85,785,876,842,315,892,34.48275862068966,-0.986,-0.149,0.132
100838,1755604392777,78.91,-48.64,-46.85,783,870,849,424,884,34.48275862068966,-0.984,-0.146,0.132
100868,1755604392806,78.9,-48.63,-46.87,784,869,838,415,893,33.333333333333336,-0.983,-0.147,0.132
100897,1755604392836,78.93,-48.67,-46.88,785,876,830,336,897,34.48275862068966,-0.985,-0.148,0.133
100927,1755604392866,78.94,-48.66,-46.88,781,874,846,341,890,33.333333333333336,-0.986,-0.148,0.132
100956,1755604392895,78.95,-48.65,-46.89,788,879,836,397,893,34.48275862068966,-0.985,-0.148,0.131
100986,1755604392925,79.01,-48.66,-46.9,784,877,843,411,895,33.333333333333336,-0.984,-0.147,0.132
101016,1755604392955,79.05,-48.66,-46.92,785,876,833,373,887,33.333333333333336,-0.983,-0.148,0.133
101046,1755604392985,79.1,-48.62,-46.92,785,877,838,314,893,33.333333333333336,-0.985,-0.148,0.133
101076,1755604393014,79.12,-48.61,-46.93,783,883,846,328,887,33.333333333333336,-0.985,-0.146,0.131
101105,1755604393044,79.16,-48.56,-46.93,788,874,841,406,886,34.48275862068966,-0.986,-0.147,0.133
101134,1755604393073,79.19,-48.53,-46.92,782,871,831,408,880,34.48275862068966,-0.985,-0.146,0.132
101164,1755604393103,79.21,-48.5,-46.94,783,880,839,340,889,33.333333333333336,-0.983,-0.145,0.13
101193,1755604393133,79.23,-48.51,-46.96,787,875,840,337,890,34.48275862068966,-0.985,-0.148,0.125
101223,1755604393163,79.24,-48.56,-46.97,784,877,833,400,902,33.333333333333336,-0.985,-0.148,0.125
101244,1755604393182,79.28,-48.58,-46.98,777,880,836,355,891,47.61904761904762,-0.986,-0.147,0.126
101273,1755604393212,79.26,-48.59,-46.99,782,884,838,425,892,34.48275862068966,-0.984,-0.145,0.126
101332,1755604393271,79.25,-48.63,-46.99,782,876,849,370,894,34.48275862068966,-0.989,-0.148,0.126
101362,1755604393301,79.28,-48.62,-46.99,781,868,845,329,890,33.333333333333336,-0.987,-0.147,0.127
101392,1755604393331,79.28,-48.6,-46.98,778,877,844,357,894,33.333333333333336,-0.985,-0.146,0.126
101421,1755604393360,79.31,-48.63,-47.0,782,869,853,426,890,34.48275862068966,-0.984,-0.147,0.124
101451,1755604393390,79.32,-48.67,-47.01,782,875,841,421,886,33.333333333333336,-0.986,-0.146,0.122
101481,1755604393420,79.28,-48.7,-47.0,785,882,843,363,888,33.333333333333336,-0.987,-0.146,0.123
101511,1755604393449,79.23,-48.72,-46.99,781,871,842,327,891,33.333333333333336,-0.985,-0.146,0.125
101540,1755604393479,79.22,-48.73,-46.99,780,882,848,381,890,34.48275862068966,-0.986,-0.148,0.126
101570,1755604393509,79.26,-48.78,-46.99,778,870,843,422,893,33.333333333333336,-0.987,-0.148,0.128
101599,1755604393538,79.28,-48.77,-46.97,778,876,850,385,889,34.48275862068966,-0.985,-0.146,0.128
101688,1755604393627,79.27,-48.81,-46.98,784,878,843,417,885,34.48275862068966,-0.986,-0.144,0.126
101718,1755604393657,79.29,-48.8,-46.97,781,873,843,400,888,33.333333333333336,-0.986,-0.143,0.127
101748,1755604393687,79.31,-48.82,-47.0,781,874,832,358,891,33.333333333333336,-0.984,-0.141,0.128
101777,1755604393716,79.32,-48.79,-47.03,781,871,843,331,891,34.48275862068966,-0.984,-0.142,0.128
101807,1755604393746,79.34,-48.8,-47.05,782,873,840,373,880,33.333333333333336,-0.987,-0.144,0.127
101836,1755604393775,79.34,-48.78,-47.04,782,875,832,425,888,34.48275862068966,-0.988,-0.143,0.126
101866,1755604393805,79.32,-48.75,-47.04,777,874,839,376,885,33.333333333333336,-0.986,-0.143,0.126
101896,1755604393835,79.31,-48.75,-47.05,783,879,841,326,900,33.333333333333336,-0.986,-0.143,0.125
101925,1755604393864,79.31,-48.75,-47.06,786,884,837,351,889,34.48275862068966,-0.986,-0.143,0.126
101955,1755604393894,79.3,-48.72,-47.06,784,878,841,414,887,33.333333333333336,-0.988,-0.144,0.125
101985,1755604393924,79.3,-48.73,-47.06,779,878,839,422,887,33.333333333333336,-0.986,-0.144,0.124
102015,1755604393953,79.27,-48.74,-47.07,780,874,842,367,889,33.333333333333336,-0.987,-0.143,0.124
102044,1755604393983,79.27,-48.72,-47.09,783,878,845,332,897,34.48275862068966,-0.986,-0.141,0.125
102074,1755604394012,79.24,-48.7,-47.12,779,877,843,368,890,33.333333333333336,-0.985,-0.14,0.126
102103,1755604394042,79.26,-48.7,-47.16,782,875,843,423,888,34.48275862068966,-0.985,-0.143,0.125
102133,1755604394071,79.23,-48.73,-47.18,781,874,846,383,896,33.333333333333336,-0.986,-0.146,0.125
102191,1755604394131,79.21,-48.79,-47.17,779,872,846,357,896,34.48275862068966,-0.989,-0.148,0.125
102221,1755604394160,79.25,-48.81,-47.17,777,877,846,428,893,33.333333333333336,-0.987,-0.147,0.126
102251,1755604394190,79.24,-48.79,-47.18,787,870,832,424,899,33.333333333333336,-0.986,-0.144,0.128
102310,1755604394250,79.28,-48.72,-47.17,785,874,842,343,903,34.48275862068966,-0.987,-0.145,0.129
102370,1755604394309,79.32,-48.7,-47.19,786,883,837,418,886,33.333333333333336,-0.984,-0.144,0.126
102399,1755604394338,79.34,-48.69,-47.21,781,874,846,403,894,34.48275862068966,-0.985,-0.143,0.125
102429,1755604394368,79.37,-48.72,-47.24,784,878,844,343,884,33.333333333333336,-0.986,-0.142,0.125
102459,1755604394397,79.37,-48.73,-47.27,785,884,846,363,900,33.333333333333336,-0.984,-0.142,0.127
102488,1755604394427,79.37,-48.72,-47.3,779,879,855,429,891,34.48275862068966,-0.983,-0.143,0.126
102517,1755604394456,79.4,-48.74,-47.34,785,871,842,433,892,34.48275862068966,-0.986,-0.144,0.126
102547,1755604394486,79.39,-48.75,-47.35,779,873,836,335,893,33.333333333333336,-0.988,-0.146,0.125
102577,1755604394516,79.41,-48.77,-47.35,784,880,846,336,890,33.333333333333336,-0.989,-0.146,0.124
102606,1755604394545,79.39,-48.75,-47.34,784,882,842,374,888,34.48275862068966,-0.986,-0.145,0.125
102666,1755604394604,79.41,-48.73,-47.38,784,879,845,366,891,33.333333333333336,-0.986,-0.144,0.126
102745,1755604394684,79.42,-48.71,-47.39,781,880,837,352,896,50.0,-0.987,-0.145,0.122
102774,1755604394713,79.41,-48.75,-47.39,781,873,836,382,890,34.48275862068966,-0.986,-0.145,0.123
102834,1755604394773,79.4,-48.74,-47.44,781,871,839,400,889,33.333333333333336,-0.985,-0.144,0.122
102863,1755604394802,79.39,-48.75,-47.45,782,881,833,341,885,34.48275862068966,-0.986,-0.144,0.123
102893,1755604394831,79.39,-48.76,-47.46,783,881,843,341,893,33.333333333333336,-0.986,-0.145,0.123
102922,1755604394861,79.38,-48.77,-47.47,780,878,837,415,892,34.48275862068966,-0.987,-0.146,0.123
102952,1755604394891,79.36,-48.82,-47.47,783,869,843,402,876,33.333333333333336,-0.986,-0.147,0.122
102981,1755604394921,79.37,-48.84,-47.47,784,874,835,352,896,34.48275862068966,-0.987,-0.147,0.124
103011,1755604394951,79.38,-48.85,-47.46,781,872,843,332,884,33.333333333333336,-0.986,-0.146,0.125
103041,1755604394980,79.36,-48.84,-47.46,787,872,833,367,884,33.333333333333336,-0.984,-0.145,0.125
103071,1755604395010,79.37,-48.82,-47.47,783,869,843,434,887,33.333333333333336,-0.986,-0.145,0.125
103100,1755604395039,79.36,-48.85,-47.48,782,876,835,404,880,34.48275862068966,-0.986,-0.144,0.124
103130,1755604395069,79.37,-48.83,-47.48,784,869,843,327,893,33.333333333333336,-0.986,-0.143,0.125
103160,1755604395098,79.37,-48.83,-47.49,789,876,843,341,891,33.333333333333336,-0.985,-0.142,0.125
103189,1755604395128,79.35,-48.81,-47.5,778,879,849,407,891,34.48275862068966,-0.985,-0.143,0.125
103219,1755604395158,79.34,-48.82,-47.51,782,877,836,421,892,33.333333333333336,-0.985,-0.144,0.125
103248,1755604395187,79.33,-48.85,-47.52,776,874,840,365,888,34.48275862068966,-0.985,-0.145,0.124
103278,1755604395217,79.32,-48.87,-47.53,779,872,838,330,880,33.333333333333336,-0.986,-0.145,0.124
103308,1755604395247,79.32,-48.91,-47.55,783,873,846,371,892,33.333333333333336,-0.986,-0.145,0.124
103337,1755604395276,79.31,-48.92,-47.55,779,875,843,411,885,34.48275862068966,-0.986,-0.144,0.126
103367,1755604395306,79.29,-48.91,-47.56,781,877,853,404,890,33.333333333333336,-0.985,-0.144,0.127
103397,1755604395335,79.27,-48.91,-47.57,780,875,843,350,886,33.333333333333336,-0.985,-0.144,0.127
103426,1755604395365,79.27,-48.91,-47.58,781,875,842,356,891,34.48275862068966,-0.985,-0.144,0.128
103456,1755604395395,79.27,-48.9,-47.59,782,886,846,397,880,33.333333333333336,-0.985,-0.143,0.128
103486,1755604395424,79.28,-48.88,-47.61,785,873,845,432,892,33.333333333333336,-0.984,-0.143,0.128
103515,1755604395454,79.26,-48.86,-47.63,783,881,834,372,890,34.48275862068966,-0.985,-0.144,0.129
103545,1755604395484,79.25,-48.85,-47.64,780,871,837,341,890,33.333333333333336,-0.985,-0.145,0.128
103574,1755604395513,79.27,-48.86,-47.66,782,872,846,375,903,34.48275862068966,-0.986,-0.146,0.128
103604,1755604395543,79.28,-48.84,-47.67,783,878,847,429,889,33.333333333333336,-0.986,-0.145,0.129
103634,1755604395572,79.26,-48.83,-47.68,780,874,842,406,890,33.333333333333336,-0.985,-0.145,0.128
103663,1755604395602,79.26,-48.82,-47.7,779,877,842,333,885,34.48275862068966,-0.984,-0.144,0.129
103693,1755604395631,79.26,-48.8,-47.71,782,878,839,332,894,33.333333333333336,-0.985,-0.144,0.13
103722,1755604395661,79.24,-48.78,-47.72,783,863,847,394,893,34.48275862068966,-0.985,-0.144,0.13
103752,1755604395690,79.23,-48.77,-47.73,783,880,837,410,896,33.333333333333336,-0.985,-0.145,0.13
103781,1755604395720,79.23,-48.78,-47.75,779,877,837,358,878,34.48275862068966,-0.985,-0.146,0.129
103811,1755604395750,79.24,-48.78,-47.76,780,875,840,319,891,33.333333333333336,-0.986,-0.146,0.129
103841,1755604395779,79.24,-48.77,-47.77,780,877,847,356,891,33.333333333333336,-0.985,-0.146,0.129
103870,1755604395809,79.24,-48.75,-47.78,780,882,833,423,892,34.48275862068966,-0.985,-0.146,0.13
103900,1755604395838,79.24,-48.74,-47.79,780,869,839,406,887,33.333333333333336,-0.984,-0.145,0.13
103929,1755604395868,79.24,-48.7,-47.79,780,881,833,336,887,34.48275862068966,-0.985,-0.145,0.129
103959,1755604395898,79.27,-48.72,-47.81,785,877,836,335,883,33.333333333333336,-0.986,-0.146,0.13
103989,1755604395927,79.27,-48.69,-47.83,780,875,837,397,889,33.333333333333336,-0.984,-0.145,0.129
104018,1755604395957,79.28,-48.67,-47.84,776,872,840,415,888,34.48275862068966,-0.986,-0.146,0.129
104048,1755604395986,79.25,-48.65,-47.84,786,874,839,352,900,33.333333333333336,-0.984,-0.145,0.128
104077,1755604396016,79.26,-48.64,-47.86,780,879,833,322,890,34.48275862068966,-0.984,-0.146,0.128
104107,1755604396046,79.26,-48.68,-47.88,782,869,844,356,890,33.333333333333336,-0.984,-0.146,0.127
104137,1755604396076,79.29,-48.67,-47.88,782,873,843,407,901,33.333333333333336,-0.987,-0.145,0.128
104167,1755604396105,79.26,-48.65,-47.88,781,876,830,409,890,33.333333333333336,-0.984,-0.145,0.129
104196,1755604396135,79.29,-48.61,-47.89,786,878,838,321,896,34.48275862068966,-0.985,-0.146,0.129
104226,1755604396165,79.28,-48.65,-47.89,780,879,835,339,900,33.333333333333336,-0.985,-0.146,0.127
104255,1755604396194,79.3,-48.64,-47.89,782,875,842,406,891,34.48275862068966,-0.986,-0.146,0.127
104285,1755604396224,79.29,-48.65,-47.88,783,869,843,375,883,33.333333333333336,-0.986,-0.146,0.127
104315,1755604396254,79.31,-48.65,-47.89,780,880,843,319,887,33.333333333333336,-0.985,-0.146,0.128
104344,1755604396283,79.3,-48.65,-47.89,787,876,841,311,879,34.48275862068966,-0.983,-0.146,0.129
104374,1755604396313,79.3,-48.64,-47.9,780,876,842,338,888,33.333333333333336,-0.986,-0.146,0.129
104404,1755604396343,79.32,-48.64,-47.91,781,878,841,369,890,33.333333333333336,-0.987,-0.146,0.128
104433,1755604396372,79.33,-48.6,-47.9,789,875,844,388,889,34.48275862068966,-0.986,-0.144,0.127
104463,1755604396402,79.37,-48.59,-47.92,784,876,842,322,894,33.333333333333336,-0.984,-0.144,0.127
104493,1755604396432,79.35,-48.6,-47.93,779,880,836,329,892,33.333333333333336,-0.985,-0.144,0.127
104523,1755604396461,79.36,-48.61,-47.95,782,872,835,378,883,33.333333333333336,-0.985,-0.144,0.126
104582,1755604396521,79.37,-48.58,-47.95,778,878,832,385,884,33.333333333333336,-0.986,-0.144,0.129
104611,1755604396550,79.35,-48.57,-47.96,778,882,837,329,878,34.48275862068966,-0.984,-0.143,0.129
104641,1755604396579,79.34,-48.53,-47.98,780,868,844,359,897,33.333333333333336,-0.983,-0.143,0.127
104670,1755604396609,79.32,-48.53,-48.0,784,874,840,428,884,34.48275862068966,-0.985,-0.143,0.127
104700,1755604396638,79.34,-48.55,-48.01,780,874,850,362,891,33.333333333333336,-0.986,-0.145,0.127
104729,1755604396668,79.33,-48.56,-48.02,783,870,851,317,893,34.48275862068966,-0.985,-0.147,0.126
104759,1755604396698,79.31,-48.58,-48.02,778,877,848,340,877,33.333333333333336,-0.985,-0.147,0.124
104788,1755604396727,79.32,-48.61,-48.02,783,871,835,401,888,34.48275862068966,-0.987,-0.146,0.124
104818,1755604396757,79.33,-48.61,-48.01,787,878,845,401,886,33.333333333333336,-0.986,-0.144,0.127
104848,1755604396787,79.35,-48.58,-48.02,790,872,838,365,890,33.333333333333336,-0.985,-0.144,0.128
104878,1755604396817,79.36,-48.58,-48.03,782,884,831,337,891,33.333333333333336,-0.985,-0.144,0.128
104907,1755604396846,79.39,-48.59,-48.04,782,871,837,372,891,34.48275862068966,-0.985,-0.144,0.127
104937,1755604396876,79.38,-48.59,-48.04,779,883,842,434,884,33.333333333333336,-0.986,-0.144,0.126
104967,1755604396906,79.37,-48.6,-48.05,787,875,849,408,887,33.333333333333336,-0.986,-0.144,0.126
104996,1755604396935,79.37,-48.61,-48.05,779,869,837,329,885,34.48275862068966,-0.985,-0.143,0.128
105026,1755604396965,79.39,-48.61,-48.07,783,879,843,327,889,33.333333333333336,-0.985,-0.144,0.129
105056,1755604396994,79.41,-48.61,-48.1,783,871,841,406,893,33.333333333333336,-0.984,-0.144,0.127
105085,1755604397024,79.39,-48.57,-48.1,783,879,836,427,890,34.48275862068966,-0.985,-0.145,0.127
105115,1755604397054,79.4,-48.59,-48.1,789,879,837,384,887,33.333333333333336,-0.986,-0.144,0.125
105144,1755604397083,79.38,-48.6,-48.11,784,879,837,334,886,34.48275862068966,-0.985,-0.143,0.126
105174,1755604397113,79.39,-48.58,-48.12,784,878,848,370,888,33.333333333333336,-0.986,-0.143,0.126
105204,1755604397142,79.37,-48.59,-48.12,777,872,839,417,885,33.333333333333336,-0.987,-0.144,0.126
105233,1755604397173,79.4,-48.57,-48.12,780,879,841,417,898,34.48275862068966,-0.987,-0.144,0.126
105254,1755604397193,79.4,-48.58,-48.13,785,876,844,393,893,47.61904761904762,-0.986,-0.144,0.125
105283,1755604397222,79.45,-48.59,-48.17,776,876,831,390,894,34.48275862068966,-0.983,-0.143,0.125
105313,1755604397252,79.56,-48.57,-48.25,780,872,839,288,885,33.333333333333336,-0.983,-0.143,0.126
105372,1755604397311,79.89,-48.56,-48.37,781,874,836,408,896,34.48275862068966,-0.989,-0.144,0.129
105402,1755604397340,79.82,-48.55,-48.34,783,872,840,379,885,33.333333333333336,-0.986,-0.145,0.125
105431,1755604397370,79.79,-48.55,-48.32,781,876,836,337,888,34.48275862068966,-0.986,-0.146,0.119
105461,1755604397400,79.75,-48.66,-48.35,785,868,844,313,897,33.333333333333336,-0.984,-0.145,0.114
105490,1755604397429,79.78,-48.71,-48.38,780,874,846,375,890,34.48275862068966,-0.987,-0.145,0.117
105520,1755604397459,79.72,-48.76,-48.37,787,873,839,423,886,33.333333333333336,-0.988,-0.146,0.119
105549,1755604397488,79.72,-48.79,-48.39,781,882,832,398,891,34.48275862068966,-0.984,-0.144,0.121
105579,1755604397518,79.73,-48.79,-48.41,783,863,836,325,884,33.333333333333336,-0.985,-0.144,0.121
105608,1755604397548,79.66,-48.81,-48.41,784,878,846,348,892,34.48275862068966,-0.986,-0.145,0.117
105638,1755604397577,79.69,-48.88,-48.43,784,877,852,407,893,33.333333333333336,-0.987,-0.146,0.117
105698,1755604397636,79.66,-48.97,-48.42,786,870,839,365,895,33.333333333333336,-0.987,-0.146,0.121
105727,1755604397666,79.65,-48.98,-48.42,778,872,846,322,884,34.48275862068966,-0.985,-0.145,0.122
105757,1755604397695,79.64,-48.98,-48.43,779,884,840,385,887,33.333333333333336,-0.985,-0.145,0.122
105786,1755604397725,79.63,-49.01,-48.45,781,877,851,425,899,34.48275862068966,-0.985,-0.146,0.12
105816,1755604397754,79.63,-49.03,-48.46,781,874,840,389,889,33.333333333333336,-0.986,-0.146,0.12
105845,1755604397784,79.61,-49.04,-48.48,781,869,842,316,884,34.48275862068966,-0.985,-0.146,0.12
105875,1755604397813,79.56,-49.04,-48.49,784,880,845,348,878,33.333333333333336,-0.984,-0.146,0.12
105904,1755604397843,79.57,-49.07,-48.51,783,875,840,384,902,34.48275862068966,-0.986,-0.147,0.12
105934,1755604397872,79.57,-49.12,-48.51,782,879,842,399,905,33.333333333333336,-0.987,-0.146,0.122
105963,1755604397902,79.59,-49.11,-48.52,785,878,841,324,881,34.48275862068966,-0.986,-0.145,0.122
105993,1755604397932,79.55,-49.11,-48.52,781,871,838,329,884,33.333333333333336,-0.985,-0.144,0.123
106052,1755604397991,79.56,-49.15,-48.57,784,887,842,427,884,34.48275862068966,-0.986,-0.144,0.123
106081,1755604398020,79.54,-49.15,-48.59,785,868,838,333,883,34.48275862068966,-0.986,-0.145,0.123
106111,1755604398050,79.52,-49.14,-48.59,782,873,832,300,896,33.333333333333336,-0.987,-0.146,0.123
106140,1755604398079,79.51,-49.15,-48.6,780,871,840,354,884,34.48275862068966,-0.986,-0.146,0.123
106170,1755604398109,79.5,-49.17,-48.62,781,879,838,426,883,33.333333333333336,-0.985,-0.145,0.123
106200,1755604398139,79.48,-49.17,-48.63,783,875,839,393,885,33.333333333333336,-0.986,-0.145,0.124
106259,1755604398198,79.48,-49.18,-48.67,781,876,837,322,892,34.48275862068966,-0.986,-0.145,0.124
106288,1755604398227,79.46,-49.18,-48.68,784,872,831,370,892,34.48275862068966,-0.987,-0.146,0.125
106377,1755604398316,79.44,-49.17,-48.72,779,875,846,325,896,33.333333333333336,-0.986,-0.146,0.123
106406,1755604398346,79.43,-49.2,-48.74,781,879,840,384,890,34.48275862068966,-0.986,-0.147,0.123
106436,1755604398375,79.45,-49.2,-48.75,781,868,839,412,881,33.333333333333336,-0.987,-0.147,0.124
106466,1755604398405,79.42,-49.2,-48.75,781,876,833,385,886,33.333333333333336,-0.985,-0.147,0.124
106495,1755604398435,79.42,-49.22,-48.77,786,879,844,297,899,34.48275862068966,-0.985,-0.148,0.123
106516,1755604398455,79.42,-49.23,-48.78,783,882,836,382,887,47.61904761904762,-0.986,-0.148,0.123
106536,1755604398475,79.42,-49.24,-48.79,783,870,845,386,886,50.0,-0.988,-0.147,0.125
106566,1755604398505,79.41,-49.24,-48.78,778,878,839,385,892,33.333333333333336,-0.987,-0.147,0.125
106595,1755604398535,79.41,-49.22,-48.8,780,875,836,299,883,34.48275862068966,-0.984,-0.146,0.125
106625,1755604398564,79.46,-49.24,-48.84,785,880,838,330,893,33.333333333333336,-0.985,-0.147,0.125
106655,1755604398594,79.43,-49.25,-48.84,778,874,844,396,885,33.333333333333336,-0.987,-0.148,0.125
106685,1755604398623,79.45,-49.27,-48.84,778,873,843,398,885,33.333333333333336,-0.986,-0.148,0.122
106714,1755604398653,79.46,-49.29,-48.84,783,880,829,350,891,34.48275862068966,-0.986,-0.147,0.123
106744,1755604398683,79.46,-49.3,-48.85,785,869,845,322,881,33.333333333333336,-0.986,-0.148,0.125
106774,1755604398712,79.43,-49.32,-48.85,785,869,836,361,886,33.333333333333336,-0.984,-0.147,0.124
106803,1755604398742,79.45,-49.32,-48.87,781,874,848,418,891,34.48275862068966,-0.986,-0.148,0.124
106833,1755604398772,79.46,-49.35,-48.86,784,888,847,356,886,33.333333333333336,-0.987,-0.148,0.124
106862,1755604398801,79.45,-49.35,-48.85,778,876,840,333,883,34.48275862068966,-0.986,-0.147,0.124
106892,1755604398830,79.47,-49.35,-48.86,781,872,830,336,893,33.333333333333336,-0.985,-0.146,0.124
106921,1755604398860,79.47,-49.37,-48.87,780,874,849,412,886,34.48275862068966,-0.986,-0.146,0.124
106951,1755604398889,79.47,-49.36,-48.89,781,886,833,398,885,33.333333333333336,-0.985,-0.146,0.124
106980,1755604398919,79.46,-49.38,-48.9,777,880,842,334,896,34.48275862068966,-0.985,-0.146,0.124
107009,1755604398948,79.46,-49.38,-48.9,778,878,840,342,892,34.48275862068966,-0.986,-0.147,0.125
107039,1755604398978,79.45,-49.39,-48.91,777,868,838,387,888,33.333333333333336,-0.986,-0.146,0.124
107069,1755604399008,79.43,-49.38,-48.92,785,877,844,405,891,33.333333333333336,-0.986,-0.146,0.125
107098,1755604399037,79.43,-49.38,-48.93,783,876,843,377,885,34.48275862068966,-0.985,-0.146,0.126
107128,1755604399067,79.42,-49.36,-48.94,785,882,841,336,884,33.333333333333336,-0.985,-0.146,0.126
107158,1755604399097,79.43,-49.37,-48.96,785,879,843,321,887,33.333333333333336,-0.985,-0.146,0.125
107187,1755604399126,79.42,-49.37,-48.98,784,882,836,403,896,34.48275862068966,-0.985,-0.147,0.125
107217,1755604399156,79.4,-49.36,-48.98,785,880,849,396,906,33.333333333333336,-0.987,-0.147,0.125
107246,1755604399185,79.38,-49.36,-48.99,785,877,844,327,894,34.48275862068966,-0.985,-0.147,0.125
107276,1755604399215,79.41,-49.34,-49.0,787,883,843,326,884,33.333333333333336,-0.985,-0.147,0.126
107335,1755604399275,79.39,-49.34,-49.03,780,879,840,406,894,34.48275862068966,-0.985,-0.148,0.125
107365,1755604399304,79.41,-49.34,-49.04,789,878,838,382,896,33.333333333333336,-0.986,-0.147,0.125
107395,1755604399334,79.39,-49.33,-49.04,781,875,844,319,895,33.333333333333336,-0.987,-0.146,0.126
107425,1755604399363,79.37,-49.29,-49.03,778,873,840,357,887,33.333333333333336,-0.985,-0.146,0.127
107454,1755604399393,79.37,-49.29,-49.06,778,868,846,411,887,34.48275862068966,-0.983,-0.146,0.126
107483,1755604399422,79.38,-49.29,-49.08,781,876,831,401,885,34.48275862068966,-0.985,-0.147,0.126
107513,1755604399452,79.37,-49.31,-49.08,781,874,843,347,894,33.333333333333336,-0.986,-0.147,0.125
107543,1755604399482,79.37,-49.33,-49.09,781,866,838,341,889,33.333333333333336,-0.986,-0.147,0.125
107572,1755604399512,79.36,-49.33,-49.1,785,875,843,406,882,34.48275862068966,-0.985,-0.147,0.126
107602,1755604399541,79.37,-49.31,-49.11,778,873,838,402,895,33.333333333333336,-0.984,-0.146,0.127
107632,1755604399571,79.35,-49.3,-49.12,785,876,840,368,895,33.333333333333336,-0.985,-0.147,0.126
107662,1755604399601,79.34,-49.29,-49.13,786,881,842,339,894,33.333333333333336,-0.985,-0.147,0.126
107691,1755604399631,79.36,-49.28,-49.13,784,878,851,352,888,34.48275862068966,-0.986,-0.147,0.126
107711,1755604399650,79.36,-49.27,-49.13,783,872,841,364,892,50.0,-0.986,-0.146,0.126
107741,1755604399680,79.34,-49.24,-49.13,780,873,843,377,883,33.333333333333336,-0.985,-0.146,0.127
107771,1755604399710,79.34,-49.26,-49.16,785,881,845,444,889,33.333333333333336,-0.984,-0.145,0.127
107800,1755604399739,79.35,-49.23,-49.17,776,867,838,424,889,34.48275862068966,-0.985,-0.145,0.128
107830,1755604399769,79.34,-49.21,-49.18,784,871,839,348,890,33.333333333333336,-0.985,-0.146,0.128
