timestamp_ms,recv_timestamp_ms,pitch,roll,yaw,flex1,flex2,flex3,flex4,flex5,sampling_hz,accel_x,accel_y,accel_z
72751,1755604367048,79.61,-58.1,-39.25,785,882,847,356,902,33.333333333333336,-0.987,-0.159,0.1
72780,1755604367050,79.63,-58.15,-39.26,783,879,842,323,888,34.48275862068966,-0.987,-0.159,0.099
72810,1755604367052,79.61,-58.09,-39.26,779,868,848,393,890,33.333333333333336,-0.987,-0.158,0.102
72839,1755604367054,79.61,-58.06,-39.27,788,884,841,429,895,34.48275862068966,-0.987,-0.157,0.102
72869,1755604367055,79.6,-58.0,-39.28,783,875,840,392,885,33.333333333333336,-0.986,-0.158,0.1
72899,1755604367058,79.64,-58.02,-39.3,785,885,843,321,899,33.333333333333336,-0.987,-0.159,0.099
72928,1755604367060,79.64,-58.01,-39.29,781,872,849,340,896,34.48275862068966,-0.988,-0.159,0.099
72958,1755604367062,79.64,-57.99,-39.29,782,877,841,409,895,33.333333333333336,-0.986,-0.158,0.1
72987,1755604367064,79.63,-57.97,-39.31,786,865,846,410,894,34.48275862068966,-0.985,-0.156,0.1
73007,1755604367066,79.62,-57.98,-39.32,784,876,845,383,894,50.0,-0.986,-0.157,0.101
73037,1755604367067,79.63,-57.99,-39.33,784,877,840,378,895,33.333333333333336,-0.988,-0.159,0.1
73067,1755604367070,79.6,-57.96,-39.31,781,870,849,333,886,33.333333333333336,-0.987,-0.158,0.1
73096,1755604367072,79.58,-57.95,-39.32,784,875,836,323,891,34.48275862068966,-0.986,-0.157,0.1
73126,1755604367074,79.56,-57.94,-39.34,781,877,846,404,886,33.333333333333336,-0.986,-0.158,0.101
73156,1755604367076,79.56,-57.91,-39.34,788,885,850,423,889,33.333333333333336,-0.987,-0.157,0.101
73185,1755604367078,79.54,-57.86,-39.33,789,880,843,396,894,34.48275862068966,-0.987,-0.157,0.102
73215,1755604367080,79.54,-57.85,-39.34,789,876,845,328,895,33.333333333333336,-0.987,-0.158,0.102
73245,1755604367081,79.53,-57.84,-39.34,782,875,851,341,887,33.333333333333336,-0.987,-0.158,0.101
73274,1755604367083,79.52,-57.81,-39.34,782,878,856,418,885,34.48275862068966,-0.987,-0.157,0.101
73304,1755604367085,79.51,-57.81,-39.35,779,870,848,415,890,33.333333333333336,-0.986,-0.157,0.102
73333,1755604367088,79.52,-57.77,-39.35,778,871,844,353,908,34.48275862068966,-0.986,-0.157,0.104
73354,1755604367090,79.51,-57.74,-39.36,781,879,851,430,896,47.61904761904762,-0.986,-0.157,0.104
73383,1755604367092,79.53,-57.69,-39.37,787,872,839,320,901,34.48275862068966,-0.986,-0.157,0.103
73413,1755604367094,79.53,-57.67,-39.38,784,876,843,341,888,33.333333333333336,-0.986,-0.157,0.102
73442,1755604367096,79.52,-57.66,-39.4,788,875,836,414,904,34.48275862068966,-0.985,-0.156,0.102
73472,1755604367098,79.53,-57.68,-39.43,788,878,849,416,891,33.333333333333336,-0.985,-0.156,0.103
73502,1755604367100,79.52,-57.6,-39.44,782,876,835,370,901,33.333333333333336,-0.986,-0.157,0.104
73531,1755604367102,79.53,-57.58,-39.45,783,879,845,323,883,34.48275862068966,-0.986,-0.157,0.103
73560,1755604367104,79.55,-57.58,-39.46,787,874,839,361,893,34.48275862068966,-0.986,-0.158,0.103
73590,1755604367106,79.55,-57.55,-39.47,787,881,845,415,893,33.333333333333336,-0.985,-0.158,0.102
73620,1755604367108,79.57,-57.53,-39.49,785,876,849,399,892,33.333333333333336,-0.986,-0.157,0.102
73650,1755604367111,79.57,-57.53,-39.51,786,874,835,324,878,33.333333333333336,-0.986,-0.157,0.102
73679,1755604367112,79.57,-57.52,-39.52,782,875,838,322,885,34.48275862068966,-0.986,-0.158,0.102
73709,1755604367115,79.61,-57.5,-39.08,784,878,849,405,883,33.333333333333336,-0.987,-0.157,0.103
73739,1755604367116,79.6,-57.48,-39.09,777,888,840,423,886,33.333333333333336,-0.987,-0.156,0.104
73768,1755604367118,79.63,-57.43,-39.11,784,875,848,367,902,34.48275862068966,-0.987,-0.157,0.104
73798,1755604367120,79.63,-57.42,-39.12,786,875,835,331,884,33.333333333333336,-0.986,-0.157,0.102
73857,1755604367125,79.65,-57.44,-39.15,784,877,839,425,898,33.333333333333336,-0.987,-0.159,0.1
73886,1755604367127,79.67,-57.44,-39.16,786,880,844,404,897,34.48275862068966,-0.987,-0.158,0.1
73916,1755604367129,79.66,-57.46,-39.17,786,885,838,343,897,33.333333333333336,-0.988,-0.158,0.101
73945,1755604367132,79.67,-57.46,-39.17,784,879,840,348,893,34.48275862068966,-0.988,-0.158,0.101
73975,1755604367134,79.66,-57.47,-39.18,786,889,834,420,891,33.333333333333336,-0.986,-0.158,0.101
74034,1755604367139,79.69,-57.47,-39.2,776,876,849,347,903,34.48275862068966,-0.987,-0.158,0.101
74064,1755604367140,79.7,-57.48,-39.2,787,872,842,334,884,33.333333333333336,-0.987,-0.157,0.101
74093,1755604367143,79.72,-57.47,-39.21,788,878,837,379,882,34.48275862068966,-0.986,-0.157,0.103
74123,1755604367145,79.73,-57.44,-39.21,783,876,840,422,893,33.333333333333336,-0.985,-0.157,0.103
74153,1755604367147,79.73,-57.46,-39.24,781,878,840,390,900,33.333333333333336,-0.986,-0.157,0.102
74173,1755604367148,79.71,-57.46,-39.24,785,883,844,410,892,50.0,-0.989,-0.158,0.102
74203,1755604367150,79.73,-57.43,-39.24,782,880,837,402,888,33.333333333333336,-0.987,-0.158,0.102
74232,1755604367153,79.73,-57.4,-39.24,789,878,845,322,889,34.48275862068966,-0.986,-0.157,0.101
74262,1755604367154,79.72,-57.41,-39.27,780,879,841,331,887,33.333333333333336,-0.986,-0.157,0.101
74292,1755604367156,79.7,-57.4,-39.28,786,872,851,424,889,33.333333333333336,-0.986,-0.157,0.1
74351,1755604367160,79.67,-57.37,-39.28,781,869,834,346,891,34.48275862068966,-0.988,-0.158,0.103
74381,1755604367162,79.68,-57.3,-39.26,789,873,846,340,895,33.333333333333336,-0.987,-0.158,0.103
74411,1755604367164,79.71,-57.27,-39.26,781,882,845,368,893,33.333333333333336,-0.986,-0.157,0.103
74440,1755604367166,79.72,-57.27,-39.28,777,878,844,438,904,34.48275862068966,-0.986,-0.158,0.101
74470,1755604367168,79.7,-57.3,-39.3,788,872,845,413,885,33.333333333333336,-0.987,-0.158,0.1
74500,1755604367170,79.69,-57.3,-39.31,784,874,842,332,890,33.333333333333336,-0.987,-0.158,0.101
74529,1755604367172,79.67,-57.28,-39.33,787,877,848,344,892,34.48275862068966,-0.986,-0.157,0.102
74559,1755604367174,79.66,-57.31,-39.36,782,875,832,409,891,33.333333333333336,-0.986,-0.158,0.102
74589,1755604367176,79.67,-57.29,-39.36,785,875,844,420,882,33.333333333333336,-0.987,-0.158,0.102
74618,1755604367178,79.66,-57.29,-39.37,784,878,842,373,887,34.48275862068966,-0.989,-0.158,0.102
74648,1755604367180,79.65,-57.28,-39.38,784,876,841,324,894,33.333333333333336,-0.987,-0.157,0.102
74677,1755604367182,79.65,-57.25,-39.39,780,882,846,364,888,34.48275862068966,-0.986,-0.157,0.102
74707,1755604367184,79.65,-57.24,-39.41,783,877,840,422,895,33.333333333333336,-0.986,-0.158,0.102
74737,1755604367186,79.65,-57.22,-39.43,780,868,839,395,884,33.333333333333336,-0.986,-0.159,0.102
74766,1755604367188,79.66,-57.24,-39.44,783,869,843,315,892,34.48275862068966,-0.987,-0.16,0.1
74796,1755604367190,79.67,-57.26,-39.44,785,871,840,311,889,33.333333333333336,-0.988,-0.159,0.1
74826,1755604367192,79.67,-57.24,-39.43,786,871,848,397,895,33.333333333333336,-0.986,-0.157,0.1
74855,1755604367194,79.67,-57.23,-39.44,788,872,845,413,883,34.48275862068966,-0.985,-0.157,0.102
74885,1755604367197,79.69,-57.25,-39.47,784,873,849,348,886,33.333333333333336,-0.986,-0.157,0.101
74914,1755604367200,79.69,-57.24,-39.47,784,874,839,311,902,34.48275862068966,-0.988,-0.158,0.101
74944,1755604367202,79.69,-57.26,-39.47,778,875,846,377,891,33.333333333333336,-0.987,-0.159,0.099
74973,1755604367204,79.71,-57.28,-39.48,780,863,840,417,895,34.48275862068966,-0.987,-0.158,0.1
75003,1755604367206,79.7,-57.28,-39.49,785,873,841,411,887,33.333333333333336,-0.985,-0.157,0.101
75032,1755604367208,79.68,-57.28,-39.5,791,880,848,323,896,34.48275862068966,-0.986,-0.157,0.101
75062,1755604367209,79.67,-57.29,-39.51,787,878,848,351,889,33.333333333333336,-0.987,-0.157,0.101
75092,1755604367212,79.7,-57.28,-39.52,783,870,850,433,892,33.333333333333336,-0.986,-0.157,0.102
75121,1755604367214,79.7,-57.25,-39.53,779,877,840,433,895,34.48275862068966,-0.985,-0.157,0.103
75151,1755604367216,79.68,-57.25,-39.55,784,879,853,346,894,33.333333333333336,-0.986,-0.158,0.102
75171,1755604367219,79.65,-57.24,-39.55,775,883,842,424,894,50.0,-0.986,-0.158,0.101
75201,1755604367221,79.67,-57.23,-39.55,785,880,837,344,889,33.333333333333336,-0.987,-0.159,0.101
75230,1755604367223,79.68,-57.23,-39.56,784,874,843,328,886,34.48275862068966,-0.986,-0.158,0.102
75260,1755604367225,79.69,-57.24,-39.57,783,871,838,387,888,33.333333333333336,-0.986,-0.159,0.102
75289,1755604367227,79.74,-57.26,-39.58,791,876,838,428,896,34.48275862068966,-0.99,-0.16,0.1
75319,1755604367257,79.82,-57.26,-39.55,784,880,847,367,898,33.333333333333336,-0.989,-0.161,0.101
75348,1755604367287,79.92,-57.29,-39.56,783,876,839,329,886,34.48275862068966,-0.987,-0.158,0.1
75378,1755604367316,79.97,-57.25,-39.57,783,882,842,347,892,33.333333333333336,-0.985,-0.155,0.103
75407,1755604367346,80.0,-57.17,-39.61,787,880,837,441,897,34.48275862068966,-0.982,-0.151,0.104
75437,1755604367375,79.98,-57.13,-39.69,783,874,852,409,890,33.333333333333336,-0.982,-0.151,0.1
75466,1755604367405,79.9,-57.14,-39.72,788,879,844,341,881,34.48275862068966,-0.986,-0.158,0.097
75496,1755604367435,79.92,-57.23,-39.73,784,881,841,333,888,33.333333333333336,-0.989,-0.162,0.093
75526,1755604367464,79.96,-57.23,-39.74,786,874,833,401,894,33.333333333333336,-0.989,-0.158,0.095
75555,1755604367494,79.94,-57.25,-39.77,782,883,842,417,886,34.48275862068966,-0.986,-0.154,0.096
75585,1755604367523,79.87,-57.21,-39.82,782,890,831,363,891,33.333333333333336,-0.982,-0.152,0.1
75614,1755604367553,79.87,-57.16,-39.9,778,872,839,332,895,34.48275862068966,-0.986,-0.154,0.101
75644,1755604367582,79.87,-57.2,-39.95,783,877,839,375,891,33.333333333333336,-0.99,-0.156,0.098
75673,1755604367612,79.86,-57.22,-39.97,778,879,838,436,898,34.48275862068966,-0.99,-0.163,0.098
75703,1755604367641,79.94,-57.28,-40.0,790,875,843,389,898,33.333333333333336,-0.987,-0.168,0.096
75732,1755604367671,80.06,-57.33,-40.02,783,876,845,338,892,34.48275862068966,-0.985,-0.166,0.093
75762,1755604367701,79.97,-57.42,-39.99,782,875,836,351,891,33.333333333333336,-0.988,-0.164,0.091
75782,1755604367721,79.9,-57.52,-39.97,783,879,844,381,891,50.0,-0.991,-0.165,0.089
75812,1755604367750,79.9,-57.63,-39.94,787,880,840,370,891,33.333333333333336,-0.992,-0.163,0.088
75841,1755604367780,79.92,-57.79,-39.92,781,874,831,419,887,34.48275862068966,-0.987,-0.164,0.091
75871,1755604367809,79.94,-57.85,-39.93,782,879,845,399,885,33.333333333333336,-0.987,-0.159,0.092
75901,1755604367839,79.8,-57.86,-39.91,783,880,837,328,905,33.333333333333336,-0.984,-0.154,0.097
75930,1755604367869,79.74,-57.85,-39.98,784,872,840,341,888,34.48275862068966,-0.981,-0.152,0.098
75960,1755604367898,79.72,-57.88,-40.05,781,874,838,399,890,33.333333333333336,-0.986,-0.155,0.098
75989,1755604367927,79.72,-57.89,-40.07,785,884,843,426,879,34.48275862068966,-0.989,-0.164,0.099
76019,1755604367957,79.71,-57.93,-40.06,785,874,839,365,879,33.333333333333336,-0.986,-0.173,0.098
76048,1755604367986,79.77,-58.01,-40.05,786,878,843,332,887,34.48275862068966,-0.988,-0.175,0.094
76078,1755604368016,79.75,-58.1,-39.95,788,883,847,351,893,33.333333333333336,-0.994,-0.177,0.095
76107,1755604368045,79.82,-58.11,-39.82,785,877,843,416,882,34.48275862068966,-0.992,-0.175,0.096
76137,1755604368075,79.99,-58.16,-39.74,787,880,839,400,891,33.333333333333336,-0.989,-0.168,0.094
76166,1755604368105,80.1,-58.22,-39.69,788,872,835,337,893,34.48275862068966,-0.985,-0.16,0.093
76196,1755604368134,80.08,-58.29,-39.68,777,877,843,346,889,33.333333333333336,-0.982,-0.152,0.093
76255,1755604368193,79.97,-58.31,-39.75,788,865,842,405,903,33.333333333333336,-0.987,-0.146,0.097
76284,1755604368223,79.96,-58.28,-39.77,783,874,832,363,888,34.48275862068966,-0.989,-0.152,0.099
76314,1755604368252,80.03,-58.3,-39.77,781,873,837,313,887,33.333333333333336,-0.991,-0.156,0.097
76343,1755604368282,80.05,-58.29,-39.76,788,881,835,376,892,34.48275862068966,-0.986,-0.154,0.094
76373,1755604368312,80.1,-58.33,-39.82,779,870,855,416,889,33.333333333333336,-0.983,-0.151,0.093
76403,1755604368342,80.09,-58.36,-39.88,781,876,847,374,893,33.333333333333336,-0.983,-0.15,0.092
76433,1755604368371,80.04,-58.35,-39.93,786,875,837,329,884,33.333333333333336,-0.987,-0.151,0.092
76462,1755604368401,79.97,-58.4,-39.96,783,882,841,327,892,34.48275862068966,-0.99,-0.155,0.09
76492,1755604368431,79.95,-58.44,-39.93,777,880,848,404,892,33.333333333333336,-0.993,-0.16,0.089
76522,1755604368460,79.95,-58.51,-39.89,781,885,841,412,893,33.333333333333336,-0.994,-0.162,0.089
76552,1755604368490,79.95,-58.57,-39.85,779,867,839,350,882,33.333333333333336,-0.988,-0.159,0.089
76581,1755604368520,79.97,-58.63,-39.87,788,878,839,327,892,34.48275862068966,-0.985,-0.154,0.092
76611,1755604368549,79.95,-58.65,-39.92,782,866,837,384,890,33.333333333333336,-0.985,-0.152,0.093
76640,1755604368579,79.91,-58.63,-39.94,785,874,843,432,885,34.48275862068966,-0.987,-0.152,0.093
76729,1755604368668,79.89,-58.69,-40.03,784,872,838,295,894,34.48275862068966,-0.986,-0.159,0.092
76759,1755604368697,79.89,-58.7,-40.03,783,874,848,392,888,33.333333333333336,-0.99,-0.161,0.092
76788,1755604368727,79.88,-58.71,-39.99,781,880,843,390,887,34.48275862068966,-0.992,-0.162,0.092
76818,1755604368756,79.87,-58.75,-39.94,784,873,849,335,891,33.333333333333336,-0.991,-0.162,0.091
76847,1755604368786,79.93,-58.78,-39.92,783,875,846,329,893,34.48275862068966,-0.987,-0.159,0.092
76906,1755604368845,79.93,-58.79,-39.95,789,869,846,428,888,34.48275862068966,-0.986,-0.153,0.094
76936,1755604368874,79.92,-58.74,-39.96,787,877,847,399,888,33.333333333333336,-0.988,-0.152,0.094
76965,1755604368904,79.97,-58.72,-39.98,789,877,844,339,892,34.48275862068966,-0.988,-0.149,0.095
76995,1755604368933,79.89,-58.69,-40.03,789,875,841,345,891,33.333333333333336,-0.985,-0.148,0.096
77025,1755604368963,79.85,-58.66,-40.1,783,878,853,400,896,33.333333333333336,-0.987,-0.152,0.096
77054,1755604368993,79.84,-58.65,-40.13,789,878,835,414,888,34.48275862068966,-0.991,-0.156,0.094
77084,1755604369022,79.77,-58.65,-40.13,790,876,841,335,882,33.333333333333336,-0.988,-0.159,0.093
77113,1755604369051,79.68,-58.66,-40.14,783,877,854,340,885,34.48275862068966,-0.985,-0.162,0.093
77143,1755604369081,79.65,-58.78,-40.16,784,880,853,415,889,33.333333333333336,-0.987,-0.165,0.091
77172,1755604369110,79.69,-58.84,-40.17,789,869,846,416,887,34.48275862068966,-0.99,-0.164,0.092
77202,1755604369140,79.71,-58.83,-40.14,778,872,843,341,893,33.333333333333336,-0.992,-0.159,0.096
77231,1755604369170,79.8,-58.78,-40.15,786,873,851,329,881,34.48275862068966,-0.989,-0.152,0.102
77261,1755604369200,79.87,-58.67,-40.21,783,872,840,345,885,33.333333333333336,-0.983,-0.149,0.109
77281,1755604369219,79.89,-58.51,-40.26,785,874,839,343,891,50.0,-0.981,-0.15,0.11
77311,1755604369249,79.98,-58.42,-40.33,780,874,839,376,894,33.333333333333336,-0.986,-0.154,0.103
77340,1755604369279,80.03,-58.4,-40.36,787,880,839,396,895,34.48275862068966,-0.987,-0.159,0.096
77370,1755604369308,79.98,-58.43,-40.36,784,878,845,390,901,33.333333333333336,-0.987,-0.163,0.091
77399,1755604369338,79.89,-58.55,-40.34,781,879,840,328,890,34.48275862068966,-0.989,-0.169,0.087
77429,1755604369368,79.97,-58.69,-40.31,783,883,842,338,889,33.333333333333336,-0.992,-0.167,0.088
77459,1755604369397,79.97,-58.72,-40.28,786,875,848,396,891,33.333333333333336,-0.987,-0.16,0.094
77488,1755604369427,80.01,-58.67,-40.29,787,866,835,409,887,34.48275862068966,-0.985,-0.154,0.098
77518,1755604369456,80.01,-58.66,-40.34,783,879,841,356,898,33.333333333333336,-0.982,-0.153,0.098
77548,1755604369486,80.04,-58.65,-40.4,782,880,834,289,881,33.333333333333336,-0.985,-0.157,0.096
77577,1755604369515,80.0,-58.7,-40.4,786,867,845,377,888,34.48275862068966,-0.99,-0.16,0.09
77607,1755604369545,79.99,-58.75,-40.36,786,873,840,418,901,33.333333333333336,-0.992,-0.162,0.089
77636,1755604369574,80.0,-58.85,-40.34,785,876,838,391,883,34.48275862068966,-0.989,-0.16,0.09
77666,1755604369604,80.01,-58.85,-40.34,785,877,846,333,902,33.333333333333336,-0.986,-0.159,0.092
77695,1755604369634,80.01,-58.91,-40.35,778,886,841,358,890,34.48275862068966,-0.986,-0.158,0.092
77725,1755604369663,80.0,-58.9,-40.36,787,878,839,427,889,33.333333333333336,-0.987,-0.157,0.093
77754,1755604369693,79.98,-58.94,-40.35,784,865,849,414,893,34.48275862068966,-0.989,-0.16,0.092
77784,1755604369723,80.03,-58.97,-40.32,780,876,841,336,892,33.333333333333336,-0.992,-0.16,0.092
77814,1755604369752,80.02,-58.99,-40.28,781,882,848,337,891,33.333333333333336,-0.988,-0.158,0.091
77843,1755604369782,80.0,-59.02,-40.29,786,883,838,399,889,34.48275862068966,-0.986,-0.156,0.09
77873,1755604369812,79.96,-59.02,-40.29,782,876,840,428,885,33.333333333333336,-0.987,-0.156,0.092
77893,1755604369832,79.95,-59.01,-40.3,782,875,839,375,885,50.0,-0.987,-0.154,0.094
77923,1755604369861,79.95,-58.95,-40.31,783,884,844,423,893,33.333333333333336,-0.988,-0.154,0.095
77952,1755604369891,79.93,-58.94,-40.32,785,875,837,356,891,34.48275862068966,-0.988,-0.156,0.094
77982,1755604369920,79.94,-58.94,-40.32,788,876,843,336,892,33.333333333333336,-0.988,-0.155,0.093
78012,1755604369950,79.91,-58.89,-40.32,779,879,853,362,893,33.333333333333336,-0.987,-0.154,0.093
78071,1755604370009,79.84,-58.88,-40.31,781,867,840,399,898,33.333333333333336,-0.989,-0.156,0.092
78100,1755604370038,79.87,-58.86,-40.32,782,873,846,339,886,34.48275862068966,-0.988,-0.154,0.096
78130,1755604370068,79.86,-58.78,-40.33,784,877,837,348,891,33.333333333333336,-0.988,-0.154,0.097
78159,1755604370098,79.87,-58.67,-40.35,783,875,839,429,885,34.48275862068966,-0.985,-0.156,0.097
78189,1755604370128,79.96,-58.68,-40.37,785,882,848,413,884,33.333333333333336,-0.988,-0.157,0.094
78209,1755604370147,79.96,-58.68,-40.38,787,881,835,374,884,50.0,-0.987,-0.157,0.093
78238,1755604370177,79.94,-58.66,-40.38,781,871,840,408,879,34.48275862068966,-0.987,-0.156,0.089
78268,1755604370206,79.96,-58.7,-40.4,784,876,836,344,900,33.333333333333336,-0.988,-0.154,0.089
78297,1755604370236,79.95,-58.71,-40.43,778,871,848,346,890,34.48275862068966,-0.985,-0.154,0.09
78327,1755604370265,79.87,-58.73,-40.42,778,876,853,401,901,33.333333333333336,-0.988,-0.155,0.09
78356,1755604370295,79.78,-58.78,-40.4,780,871,842,434,899,34.48275862068966,-0.99,-0.153,0.09
78386,1755604370325,79.73,-58.83,-40.4,783,880,848,385,890,33.333333333333336,-0.987,-0.15,0.092
78416,1755604370354,79.62,-58.78,-40.4,779,879,844,319,890,33.333333333333336,-0.985,-0.152,0.094
78446,1755604370384,79.53,-58.87,-40.41,779,865,843,303,897,33.333333333333336,-0.988,-0.156,0.092
78475,1755604370414,79.47,-58.91,-40.41,781,875,849,388,887,34.48275862068966,-0.987,-0.156,0.095
78505,1755604370443,79.4,-58.9,-40.41,784,881,835,407,895,33.333333333333336,-0.986,-0.156,0.1
78534,1755604370473,79.39,-58.93,-40.41,781,874,836,340,895,34.48275862068966,-0.99,-0.159,0.099
78564,1755604370503,79.48,-58.98,-40.4,778,877,831,317,880,33.333333333333336,-0.99,-0.157,0.102
78594,1755604370532,79.53,-58.95,-40.43,780,878,845,367,894,33.333333333333336,-0.984,-0.154,0.104
78623,1755604370562,79.47,-58.86,-40.45,786,869,845,403,892,34.48275862068966,-0.985,-0.153,0.104
78653,1755604370591,79.49,-58.84,-40.47,789,878,847,372,890,33.333333333333336,-0.988,-0.152,0.106
78683,1755604370621,79.45,-58.72,-40.5,778,874,836,309,894,33.333333333333336,-0.984,-0.151,0.109
78712,1755604370650,79.43,-58.6,-40.53,781,873,844,339,890,34.48275862068966,-0.986,-0.155,0.107
78742,1755604370680,79.44,-58.57,-40.54,784,879,840,413,897,33.333333333333336,-0.988,-0.155,0.104
78771,1755604370709,79.46,-58.48,-40.56,780,867,839,413,884,34.48275862068966,-0.986,-0.153,0.106
78801,1755604370740,79.41,-58.44,-40.6,783,881,840,339,904,33.333333333333336,-0.985,-0.155,0.104
78821,1755604370760,79.39,-58.4,-40.62,780,870,834,406,894,50.0,-0.985,-0.159,0.104
78841,1755604370780,79.38,-58.4,-40.63,783,877,843,397,887,50.0,-0.988,-0.162,0.104
78871,1755604370809,79.4,-58.36,-40.61,779,879,846,392,883,33.333333333333336,-0.99,-0.161,0.103
78900,1755604370839,79.39,-58.32,-40.61,780,877,848,309,878,34.48275862068966,-0.987,-0.158,0.104
78930,1755604370868,79.38,-58.25,-40.63,780,872,846,321,907,33.333333333333336,-0.984,-0.155,0.103
78960,1755604370898,79.37,-58.24,-40.69,777,880,843,397,883,33.333333333333336,-0.983,-0.154,0.103
78989,1755604370928,79.39,-58.18,-40.77,783,880,842,407,895,34.48275862068966,-0.985,-0.153,0.106
79019,1755604370957,79.33,-58.11,-40.81,781,876,839,364,888,33.333333333333336,-0.987,-0.154,0.108
79049,1755604370987,79.33,-58.02,-40.85,785,868,845,331,887,33.333333333333336,-0.984,-0.158,0.11
79078,1755604371017,79.35,-57.9,-40.89,785,876,833,367,894,34.48275862068966,-0.984,-0.16,0.11
79108,1755604371046,79.38,-57.83,-40.92,782,875,829,435,891,33.333333333333336,-0.987,-0.163,0.107
79167,1755604371105,79.46,-57.81,-40.95,778,869,851,340,888,33.333333333333336,-0.987,-0.159,0.102
79196,1755604371135,79.41,-57.76,-40.97,783,873,856,335,892,34.48275862068966,-0.983,-0.159,0.105
79226,1755604371164,79.39,-57.75,-41.01,782,886,848,414,899,33.333333333333336,-0.984,-0.161,0.104
79255,1755604371194,79.4,-57.78,-41.04,778,883,846,418,895,34.48275862068966,-0.987,-0.163,0.104
79285,1755604371223,79.44,-57.78,-41.03,780,878,846,358,889,33.333333333333336,-0.989,-0.164,0.104
79315,1755604371253,79.44,-57.8,-41.03,779,873,839,329,884,33.333333333333336,-0.987,-0.163,0.103
79344,1755604371283,79.47,-57.81,-41.02,785,877,843,375,892,34.48275862068966,-0.986,-0.162,0.103
79374,1755604371312,79.44,-57.85,-41.04,785,876,843,435,881,33.333333333333336,-0.984,-0.159,0.103
79403,1755604371342,79.43,-57.84,-41.07,785,881,848,405,883,34.48275862068966,-0.985,-0.16,0.106
79433,1755604371372,79.42,-57.81,-41.08,781,883,843,326,882,33.333333333333336,-0.986,-0.162,0.108
79463,1755604371401,79.46,-57.76,-41.08,784,883,845,346,884,33.333333333333336,-0.985,-0.163,0.108
79492,1755604371431,79.48,-57.73,-41.08,786,879,842,430,879,34.48275862068966,-0.985,-0.164,0.105
79522,1755604371461,79.48,-57.72,-41.07,777,875,854,428,886,33.333333333333336,-0.985,-0.163,0.104
79581,1755604371519,79.51,-57.66,-41.07,784,877,848,336,897,33.333333333333336,-0.985,-0.161,0.105
79610,1755604371549,79.51,-57.67,-41.07,776,863,844,382,882,34.48275862068966,-0.986,-0.162,0.104
79640,1755604371578,79.53,-57.7,-41.08,780,872,845,416,889,33.333333333333336,-0.987,-0.162,0.104
79669,1755604371608,79.52,-57.66,-41.07,786,875,847,363,893,34.48275862068966,-0.985,-0.162,0.105
79699,1755604371638,79.51,-57.67,-41.07,784,874,838,332,892,33.333333333333336,-0.986,-0.162,0.103
79729,1755604371667,79.54,-57.68,-41.06,788,876,839,359,890,33.333333333333336,-0.988,-0.162,0.103
79758,1755604371697,79.55,-57.68,-41.04,781,881,851,413,885,34.48275862068966,-0.986,-0.161,0.103
79788,1755604371726,79.52,-57.66,-41.03,787,880,840,402,895,33.333333333333336,-0.985,-0.16,0.102
79818,1755604371756,79.51,-57.67,-41.03,788,882,842,339,880,33.333333333333336,-0.985,-0.159,0.102
79847,1755604371786,79.48,-57.65,-41.02,787,871,847,321,896,34.48275862068966,-0.983,-0.158,0.103
79906,1755604371845,79.43,-57.62,-41.04,785,868,841,421,893,34.48275862068966,-0.985,-0.158,0.106
79966,1755604371904,79.48,-57.53,-41.09,786,873,852,339,884,33.333333333333336,-0.984,-0.16,0.106
79995,1755604371934,79.51,-57.53,-41.11,785,869,841,357,892,34.48275862068966,-0.986,-0.161,0.104
80025,1755604371963,79.53,-57.54,-41.11,787,879,846,435,878,33.333333333333336,-0.987,-0.161,0.103
80054,1755604371993,79.53,-57.51,-41.11,790,875,835,414,892,34.48275862068966,-0.985,-0.159,0.103
80084,1755604372022,79.54,-57.46,-41.14,779,878,841,321,882,33.333333333333336,-0.984,-0.158,0.105
80113,1755604372052,79.57,-57.4,-41.17,785,868,839,321,889,34.48275862068966,-0.985,-0.157,0.106
80134,1755604372072,79.58,-57.36,-41.18,781,876,839,368,884,47.61904761904762,-0.985,-0.157,0.106
80163,1755604372101,79.58,-57.32,-41.21,780,878,842,363,890,34.48275862068966,-0.986,-0.158,0.104
80193,1755604372131,79.62,-57.31,-41.23,787,878,835,437,895,33.333333333333336,-0.987,-0.159,0.103
80222,1755604372161,79.61,-57.27,-41.24,783,875,835,433,893,34.48275862068966,-0.987,-0.158,0.102
80252,1755604372191,79.56,-57.26,-41.26,784,884,845,351,882,33.333333333333336,-0.985,-0.159,0.102
80282,1755604372220,79.58,-57.26,-41.29,778,877,837,323,891,33.333333333333336,-0.987,-0.161,0.101
80312,1755604372250,79.57,-57.26,-41.28,781,863,839,350,890,33.333333333333336,-0.988,-0.163,0.1
80341,1755604372279,79.57,-57.32,-41.28,784,879,844,425,889,34.48275862068966,-0.989,-0.163,0.098
80371,1755604372309,79.56,-57.32,-41.27,783,873,833,393,887,33.333333333333336,-0.988,-0.161,0.098
80400,1755604372339,79.52,-57.34,-41.28,784,877,844,328,892,34.48275862068966,-0.984,-0.158,0.1
80430,1755604372368,79.51,-57.33,-41.33,777,881,836,328,893,33.333333333333336,-0.983,-0.158,0.102
80460,1755604372398,79.52,-57.3,-41.36,787,876,838,408,899,33.333333333333336,-0.987,-0.159,0.105
80489,1755604372428,79.54,-57.29,-41.38,785,881,846,417,893,34.48275862068966,-0.988,-0.16,0.104
80519,1755604372458,79.55,-57.24,-41.39,781,879,842,361,888,33.333333333333336,-0.986,-0.162,0.104
80578,1755604372517,79.57,-57.22,-41.43,786,875,845,372,882,34.48275862068966,-0.986,-0.161,0.099
80608,1755604372546,79.57,-57.27,-41.44,790,867,846,431,889,33.333333333333336,-0.987,-0.161,0.1
80638,1755604372576,79.58,-57.28,-41.45,782,874,834,402,898,33.333333333333336,-0.986,-0.162,0.101
80668,1755604372606,79.59,-57.29,-41.46,785,885,837,327,885,33.333333333333336,-0.988,-0.163,0.101
80697,1755604372635,79.6,-57.33,-41.46,785,878,840,337,894,34.48275862068966,-0.988,-0.163,0.1
80726,1755604372665,79.61,-57.35,-41.47,785,868,842,428,886,34.48275862068966,-0.987,-0.163,0.098
80785,1755604372724,79.61,-57.47,-41.46,785,867,843,369,889,34.48275862068966,-0.987,-0.164,0.097
80815,1755604372754,79.62,-57.52,-41.46,782,870,838,312,898,33.333333333333336,-0.988,-0.163,0.099
80845,1755604372784,79.6,-57.54,-41.44,779,879,845,358,888,33.333333333333336,-0.987,-0.163,0.101
80875,1755604372813,79.65,-57.55,-41.44,785,868,838,404,886,33.333333333333336,-0.985,-0.162,0.101
80904,1755604372843,79.71,-57.55,-41.45,782,870,853,413,897,34.48275862068966,-0.985,-0.16,0.101
80934,1755604372872,79.71,-57.55,-41.46,784,863,834,294,888,33.333333333333336,-0.985,-0.159,0.101
80963,1755604372902,79.71,-57.56,-41.48,784,877,838,326,898,34.48275862068966,-0.986,-0.159,0.1
80993,1755604372932,79.74,-57.55,-41.51,782,864,839,406,896,33.333333333333336,-0.986,-0.157,0.1
81023,1755604372961,79.71,-57.53,-41.53,785,878,844,413,900,33.333333333333336,-0.985,-0.159,0.098
81052,1755604372991,79.68,-57.57,-41.55,786,881,840,356,898,34.48275862068966,-0.987,-0.162,0.096
81082,1755604373021,79.68,-57.64,-41.55,785,877,843,327,888,33.333333333333336,-0.987,-0.162,0.095
81112,1755604373050,79.68,-57.64,-41.57,781,880,844,361,898,33.333333333333336,-0.984,-0.159,0.098
81141,1755604373080,79.63,-57.65,-41.6,781,875,846,414,899,34.48275862068966,-0.984,-0.16,0.098
81171,1755604373110,79.61,-57.69,-41.62,778,886,845,402,897,33.333333333333336,-0.987,-0.161,0.098
81201,1755604373140,79.61,-57.72,-41.63,783,878,845,331,894,33.333333333333336,-0.986,-0.162,0.099
81260,1755604373199,79.56,-57.74,-41.65,785,879,850,399,887,34.48275862068966,-0.986,-0.164,0.098
81319,1755604373258,79.58,-57.8,-41.62,783,869,832,355,894,34.48275862068966,-0.989,-0.163,0.099
81349,1755604373287,79.58,-57.8,-41.63,781,876,835,331,893,33.333333333333336,-0.985,-0.161,0.1
81408,1755604373347,79.54,-57.83,-41.66,782,873,843,427,898,33.333333333333336,-0.986,-0.161,0.101
81438,1755604373376,79.54,-57.8,-41.67,786,875,835,411,873,33.333333333333336,-0.986,-0.16,0.102
81467,1755604373406,79.53,-57.34,-41.68,783,881,833,328,888,34.48275862068966,-0.986,-0.161,0.102
81497,1755604373435,79.5,-57.37,-41.69,783,874,839,337,895,33.333333333333336,-0.986,-0.163,0.099
