timestamp_ms,recv_timestamp_ms,pitch,roll,yaw,flex1,flex2,flex3,flex4,flex5,sampling_hz,accel_x,accel_y,accel_z
42115,1755603006434,15.36,-30.97,-7.8,773,783,780,439,855,33.333333333333336,-0.261,-0.494,0.836
42174,1755603006438,15.24,-30.81,-7.76,769,784,770,312,854,34.48275862068966,-0.269,-0.486,0.807
42204,1755603006440,14.91,-30.92,-7.75,765,780,776,361,856,33.333333333333336,-0.274,-0.486,0.819
42233,1755603006442,14.83,-31.0,-7.63,771,781,768,423,858,34.48275862068966,-0.276,-0.488,0.832
42263,1755603006444,14.75,-30.95,-7.57,764,781,773,382,871,33.333333333333336,-0.276,-0.497,0.84
42292,1755603006446,14.64,-30.81,-7.52,776,783,774,301,861,34.48275862068966,-0.27,-0.508,0.839
42322,1755603006448,14.68,-30.64,-7.42,764,784,772,333,855,33.333333333333336,-0.262,-0.511,0.835
42352,1755603006450,14.76,-30.57,-7.33,774,781,777,414,855,33.333333333333336,-0.251,-0.498,0.835
42381,1755603006452,14.79,-30.59,-7.32,773,773,773,412,853,34.48275862068966,-0.245,-0.478,0.836
42410,1755603006454,14.85,-30.67,-7.45,765,782,774,330,859,34.48275862068966,-0.245,-0.468,0.84
42440,1755603006456,14.86,-30.73,-7.66,767,785,768,322,854,33.333333333333336,-0.253,-0.474,0.842
42469,1755603006458,15.08,-30.75,-7.75,769,780,773,413,851,34.48275862068966,-0.264,-0.495,0.841
42499,1755603006460,15.26,-30.7,-7.71,771,781,777,439,852,33.333333333333336,-0.271,-0.51,0.829
42528,1755603006462,15.23,-30.61,-7.62,771,783,771,354,864,34.48275862068966,-0.274,-0.511,0.816
42558,1755603006464,15.0,-30.6,-7.55,769,781,763,321,854,33.333333333333336,-0.274,-0.5,0.813
42587,1755603006466,14.82,-30.62,-7.52,772,786,776,367,845,34.48275862068966,-0.271,-0.488,0.827
42617,1755603006468,14.85,-30.66,-7.56,771,780,771,431,848,33.333333333333336,-0.27,-0.481,0.842
42646,1755603006470,14.96,-30.59,-7.57,768,778,768,413,854,34.48275862068966,-0.27,-0.481,0.848
42676,1755603006472,15.17,-30.46,-7.55,771,788,763,312,860,33.333333333333336,-0.272,-0.485,0.843
42705,1755603006474,15.34,-30.38,-7.51,773,779,766,342,850,34.48275862068966,-0.272,-0.483,0.825
42735,1755603006475,15.31,-30.46,-7.54,771,784,769,437,842,33.333333333333336,-0.272,-0.485,0.81
42764,1755603006477,15.1,-30.53,-7.59,765,781,773,379,859,34.48275862068966,-0.279,-0.492,0.812
42785,1755603006479,14.97,-30.61,-7.61,772,785,766,373,866,47.61904761904762,-0.282,-0.494,0.825
42814,1755603006481,15.1,-30.66,-7.53,774,781,774,393,855,34.48275862068966,-0.28,-0.491,0.84
42844,1755603006483,15.4,-30.71,-7.39,772,786,768,310,854,33.333333333333336,-0.275,-0.488,0.845
42873,1755603006485,15.73,-30.73,-7.31,773,784,776,314,861,34.48275862068966,-0.271,-0.486,0.846
42903,1755603006487,15.82,-30.58,-7.31,768,786,774,424,845,33.333333333333336,-0.269,-0.485,0.831
42932,1755603006489,15.81,-30.66,-7.39,769,772,782,435,859,34.48275862068966,-0.268,-0.487,0.813
42962,1755603006491,15.73,-30.85,-7.49,769,774,775,388,861,33.333333333333336,-0.271,-0.498,0.815
42992,1755603006494,15.88,-31.02,-7.55,771,787,776,317,861,33.333333333333336,-0.269,-0.507,0.842
43022,1755603006496,16.03,-30.67,-7.57,765,788,774,352,852,33.333333333333336,-0.271,-0.508,0.858
43042,1755603006498,16.2,-30.44,-7.6,774,781,771,354,855,50.0,-0.274,-0.498,0.842
43071,1755603006500,16.57,-30.37,-7.61,773,781,773,351,858,34.48275862068966,-0.284,-0.486,0.823
43101,1755603006501,16.8,-30.44,-7.59,768,781,770,442,856,33.333333333333336,-0.292,-0.48,0.806
43130,1755603006503,16.73,-30.56,-7.63,773,783,776,411,853,34.48275862068966,-0.293,-0.481,0.796
43160,1755603006505,16.52,-30.58,-7.73,768,781,776,312,859,33.333333333333336,-0.3,-0.495,0.807
43190,1755603006507,16.52,-30.72,-7.69,772,783,775,335,854,33.333333333333336,-0.297,-0.498,0.821
43219,1755603006509,16.94,-30.76,-7.49,770,792,776,414,857,34.48275862068966,-0.299,-0.486,0.839
43249,1755603006511,17.07,-30.5,-7.4,777,779,767,441,855,33.333333333333336,-0.304,-0.477,0.83
43338,1755603006517,16.63,-31.0,-7.85,766,781,764,334,851,33.333333333333336,-0.287,-0.493,0.793
43367,1755603006519,16.44,-31.1,-7.96,770,778,776,435,856,34.48275862068966,-0.291,-0.512,0.817
43397,1755603006522,16.25,-30.96,-7.95,769,783,779,412,851,33.333333333333336,-0.292,-0.52,0.835
43427,1755603006524,16.22,-30.75,-7.89,773,781,774,317,858,33.333333333333336,-0.288,-0.514,0.847
43456,1755603006526,16.23,-30.37,-7.85,774,782,771,327,853,34.48275862068966,-0.28,-0.497,0.834
43486,1755603006528,16.14,-30.14,-7.92,775,780,776,404,855,33.333333333333336,-0.273,-0.488,0.82
43515,1755603006530,16.11,-30.27,-8.14,767,783,772,414,859,34.48275862068966,-0.281,-0.495,0.827
43545,1755603006532,16.06,-30.21,-8.17,772,783,774,370,852,33.333333333333336,-0.296,-0.499,0.835
43574,1755603006535,15.95,-29.98,-8.09,772,775,774,320,851,34.48275862068966,-0.291,-0.498,0.826
43604,1755603006537,15.87,-29.93,-8.1,768,779,774,358,865,33.333333333333336,-0.286,-0.497,0.821
43634,1755603006539,15.74,-29.91,-8.14,770,783,768,405,844,33.333333333333336,-0.283,-0.49,0.825
43663,1755603006568,15.81,-29.85,-8.15,769,785,770,406,865,34.48275862068966,-0.28,-0.48,0.826
43693,1755603006598,15.86,-29.77,-8.19,776,784,773,313,846,33.333333333333336,-0.279,-0.479,0.825
43714,1755603006618,15.82,-29.78,-8.25,774,788,771,429,845,47.61904761904762,-0.278,-0.483,0.825
43743,1755603006647,15.76,-29.86,-8.32,775,779,771,311,860,34.48275862068966,-0.276,-0.487,0.832
43772,1755603006677,15.82,-29.8,-8.31,772,784,769,323,852,34.48275862068966,-0.274,-0.485,0.834
43802,1755603006706,15.87,-29.82,-8.33,770,780,775,425,852,33.333333333333336,-0.273,-0.483,0.832
43832,1755603006736,15.86,-29.86,-8.38,774,784,774,438,857,33.333333333333336,-0.271,-0.485,0.834
43861,1755603006765,15.86,-29.81,-8.44,769,781,771,350,856,34.48275862068966,-0.272,-0.484,0.834
43920,1755603006824,15.96,-29.84,-8.45,769,779,770,379,847,33.333333333333336,-0.277,-0.485,0.832
43950,1755603006854,15.88,-29.83,-8.47,771,785,775,434,849,33.333333333333336,-0.277,-0.488,0.831
43979,1755603006883,15.88,-29.86,-8.45,771,781,774,395,855,34.48275862068966,-0.277,-0.488,0.832
44009,1755603006913,15.87,-29.88,-8.41,766,773,778,312,847,33.333333333333336,-0.277,-0.486,0.837
44038,1755603006943,15.71,-29.75,-8.43,773,785,775,334,852,34.48275862068966,-0.272,-0.482,0.831
44067,1755603006972,15.53,-29.8,-8.56,775,788,772,441,850,34.48275862068966,-0.268,-0.484,0.823
44097,1755603007001,15.4,-29.96,-8.67,773,775,779,414,862,33.333333333333336,-0.274,-0.493,0.831
44126,1755603007031,15.32,-29.98,-8.6,770,787,770,303,848,34.48275862068966,-0.272,-0.49,0.838
44156,1755603007061,15.41,-29.97,-8.53,769,776,773,305,869,33.333333333333336,-0.266,-0.484,0.845
44186,1755603007090,15.4,-29.88,-8.54,771,779,775,393,848,33.333333333333336,-0.258,-0.481,0.847
44215,1755603007120,15.44,-29.81,-8.59,773,780,772,420,855,34.48275862068966,-0.252,-0.481,0.842
44245,1755603007149,15.5,-29.72,-8.66,771,782,769,352,857,33.333333333333336,-0.249,-0.482,0.83
44274,1755603007179,15.43,-29.83,-8.75,772,779,773,287,852,34.48275862068966,-0.258,-0.489,0.827
44333,1755603007237,15.38,-29.88,-8.69,763,770,776,422,846,34.48275862068966,-0.267,-0.489,0.852
44363,1755603007267,15.44,-29.82,-8.62,767,776,775,385,856,33.333333333333336,-0.265,-0.486,0.851
44392,1755603007297,15.6,-29.74,-8.52,775,775,782,299,851,34.48275862068966,-0.259,-0.48,0.84
44422,1755603007326,15.63,-29.81,-8.5,771,785,775,326,851,33.333333333333336,-0.256,-0.475,0.831
44452,1755603007356,15.59,-29.9,-8.55,768,781,776,421,851,33.333333333333336,-0.257,-0.478,0.834
44481,1755603007385,15.61,-29.88,-8.58,773,776,773,404,865,34.48275862068966,-0.261,-0.486,0.841
44511,1755603007415,15.67,-29.77,-8.53,769,780,772,329,856,33.333333333333336,-0.262,-0.489,0.843
44540,1755603007445,15.78,-29.73,-8.46,772,783,770,298,849,34.48275862068966,-0.26,-0.484,0.84
44570,1755603007474,15.79,-29.69,-8.51,767,775,771,383,862,33.333333333333336,-0.26,-0.479,0.837
44599,1755603007504,15.8,-29.71,-8.58,765,784,766,443,848,34.48275862068966,-0.262,-0.479,0.836
44620,1755603007524,15.87,-29.73,-8.6,767,783,775,337,848,47.61904761904762,-0.267,-0.483,0.838
44649,1755603007553,16.01,-29.73,-8.57,772,782,767,418,845,34.48275862068966,-0.273,-0.487,0.835
44679,1755603007583,16.14,-29.8,-8.47,772,782,763,381,862,33.333333333333336,-0.273,-0.488,0.834
44708,1755603007613,16.19,-29.79,-8.45,764,782,780,306,852,34.48275862068966,-0.273,-0.488,0.843
44728,1755603007633,16.15,-29.71,-8.46,767,781,781,400,836,50.0,-0.268,-0.483,0.843
44758,1755603007662,16.26,-29.67,-8.49,769,779,770,325,854,33.333333333333336,-0.27,-0.481,0.837
44788,1755603007692,16.35,-29.7,-8.5,771,778,772,357,855,33.333333333333336,-0.272,-0.479,0.831
44817,1755603007722,16.34,-29.79,-8.56,770,783,769,455,854,34.48275862068966,-0.272,-0.477,0.828
44847,1755603007751,16.26,-29.81,-8.65,769,787,771,435,847,33.333333333333336,-0.273,-0.478,0.828
44876,1755603007781,16.2,-29.9,-8.74,767,781,770,331,847,34.48275862068966,-0.274,-0.479,0.83
44906,1755603007810,16.23,-29.92,-8.77,773,788,773,346,856,33.333333333333336,-0.279,-0.483,0.833
44935,1755603007840,16.28,-29.97,-8.76,773,781,773,438,842,34.48275862068966,-0.28,-0.487,0.833
44995,1755603007899,16.33,-30.02,-8.77,773,786,777,362,854,33.333333333333336,-0.277,-0.485,0.832
45024,1755603007928,16.33,-30.04,-8.79,771,783,774,318,852,34.48275862068966,-0.277,-0.489,0.826
45054,1755603007958,16.25,-30.13,-8.81,773,788,777,392,854,33.333333333333336,-0.279,-0.492,0.823
45083,1755603007987,16.2,-30.18,-8.81,771,787,770,453,845,34.48275862068966,-0.281,-0.491,0.829
45113,1755603008017,16.21,-30.17,-8.79,777,784,782,413,848,33.333333333333336,-0.281,-0.492,0.832
45142,1755603008046,16.23,-30.15,-8.75,770,786,778,329,856,34.48275862068966,-0.281,-0.493,0.834
45172,1755603008077,16.25,-30.13,-8.75,775,792,773,347,852,33.333333333333336,-0.276,-0.487,0.829
45192,1755603008096,16.25,-30.15,-8.78,771,781,773,362,859,50.0,-0.274,-0.485,0.825
45221,1755603008126,16.25,-30.19,-8.81,769,779,773,379,858,34.48275862068966,-0.271,-0.487,0.823
45251,1755603008155,16.25,-30.2,-8.84,772,777,770,458,854,33.333333333333336,-0.272,-0.49,0.828
45281,1755603008185,16.28,-30.18,-8.85,778,774,773,414,847,33.333333333333336,-0.274,-0.492,0.833
45310,1755603008214,16.37,-30.14,-8.83,774,772,769,324,836,34.48275862068966,-0.276,-0.492,0.832
45340,1755603008244,16.47,-30.13,-8.81,771,775,774,336,848,33.333333333333336,-0.279,-0.491,0.828
45369,1755603008273,16.52,-30.15,-8.8,768,782,768,411,849,34.48275862068966,-0.28,-0.492,0.825
45399,1755603008303,16.47,-30.17,-8.8,773,784,775,452,859,33.333333333333336,-0.283,-0.494,0.824
45428,1755603008332,16.44,-30.18,-8.77,771,777,772,363,848,34.48275862068966,-0.281,-0.493,0.824
45457,1755603008362,16.44,-30.22,-8.74,771,773,766,313,839,34.48275862068966,-0.281,-0.493,0.824
45487,1755603008391,16.44,-30.29,-8.71,771,782,772,372,853,33.333333333333336,-0.283,-0.492,0.822
45516,1755603008421,16.37,-30.31,-8.65,772,780,773,436,860,34.48275862068966,-0.286,-0.496,0.823
45546,1755603008451,16.28,-30.31,-8.59,766,788,769,396,843,33.333333333333336,-0.284,-0.499,0.821
45576,1755603008480,16.15,-30.3,-8.54,772,773,776,293,844,33.333333333333336,-0.281,-0.498,0.819
45606,1755603008510,16.0,-30.35,-8.49,774,784,774,287,852,33.333333333333336,-0.278,-0.494,0.82
45635,1755603008540,15.89,-30.41,-8.45,766,786,768,427,852,34.48275862068966,-0.274,-0.49,0.827
45665,1755603008569,15.86,-30.4,-8.41,769,781,773,422,852,33.333333333333336,-0.271,-0.487,0.836
45694,1755603008599,15.85,-30.36,-8.38,768,785,770,337,854,34.48275862068966,-0.269,-0.487,0.841
45724,1755603008629,15.82,-30.26,-8.39,772,783,775,313,858,33.333333333333336,-0.266,-0.489,0.84
45754,1755603008659,15.78,-30.15,-8.42,774,786,769,357,854,33.333333333333336,-0.264,-0.49,0.836
45784,1755603008688,15.77,-30.09,-8.45,765,781,773,435,849,33.333333333333336,-0.263,-0.491,0.833
45843,1755603008747,15.74,-30.03,-8.54,770,777,772,299,855,33.333333333333336,-0.271,-0.49,0.827
45872,1755603008776,15.72,-30.03,-8.55,772,783,766,301,854,34.48275862068966,-0.276,-0.489,0.825
45902,1755603008806,15.79,-30.05,-8.51,772,785,767,436,848,33.333333333333336,-0.279,-0.489,0.829
45961,1755603008865,15.79,-29.98,-8.49,775,784,773,331,849,33.333333333333336,-0.274,-0.488,0.828
45990,1755603008895,15.77,-29.99,-8.49,770,784,778,310,854,34.48275862068966,-0.272,-0.491,0.83
46020,1755603008925,15.81,-29.99,-8.46,771,784,769,372,855,33.333333333333336,-0.272,-0.49,0.832
46050,1755603008955,15.81,-29.89,-8.46,775,777,770,434,856,33.333333333333336,-0.272,-0.488,0.834
46080,1755603008984,15.83,-29.8,-8.44,772,775,769,412,853,33.333333333333336,-0.273,-0.486,0.836
46109,1755603009013,15.91,-29.79,-8.42,770,784,774,317,843,34.48275862068966,-0.271,-0.482,0.832
46139,1755603009043,15.93,-29.79,-8.43,770,782,781,318,854,33.333333333333336,-0.272,-0.482,0.829
46168,1755603009072,15.9,-29.82,-8.48,771,789,769,437,851,34.48275862068966,-0.271,-0.483,0.828
46197,1755603009102,15.88,-29.8,-8.49,771,780,778,430,848,34.48275862068966,-0.271,-0.485,0.831
46257,1755603009161,15.9,-29.8,-8.49,769,776,770,319,859,33.333333333333336,-0.274,-0.485,0.834
46286,1755603009191,15.88,-29.79,-8.5,767,787,767,389,853,34.48275862068966,-0.273,-0.483,0.833
46316,1755603009220,15.83,-29.77,-8.51,770,781,773,443,845,33.333333333333336,-0.271,-0.48,0.833
46345,1755603009250,15.83,-29.77,-8.53,772,783,768,392,856,34.48275862068966,-0.271,-0.48,0.834
46375,1755603009279,15.8,-29.79,-8.56,773,783,776,322,844,33.333333333333336,-0.273,-0.485,0.832
46405,1755603009309,15.78,-29.81,-8.53,771,777,770,357,850,33.333333333333336,-0.273,-0.488,0.831
46434,1755603009338,15.8,-29.83,-8.47,770,782,776,457,855,34.48275862068966,-0.271,-0.485,0.834
46464,1755603009368,15.77,-29.82,-8.45,770,777,773,413,851,33.333333333333336,-0.271,-0.483,0.838
46493,1755603009397,15.76,-29.78,-8.45,772,776,771,287,868,34.48275862068966,-0.273,-0.483,0.837
46523,1755603009427,15.79,-29.78,-8.43,772,780,775,299,861,33.333333333333336,-0.274,-0.482,0.833
46552,1755603009456,15.8,-29.79,-8.42,767,787,774,420,854,34.48275862068966,-0.272,-0.481,0.833
46581,1755603009486,15.76,-29.78,-8.43,774,778,768,423,847,34.48275862068966,-0.269,-0.48,0.834
46611,1755603009515,15.77,-29.78,-8.47,770,775,778,347,864,33.333333333333336,-0.267,-0.481,0.834
46641,1755603009545,15.77,-29.82,-8.5,769,779,772,326,853,33.333333333333336,-0.268,-0.482,0.834
46670,1755603009574,15.75,-29.83,-8.51,771,784,774,395,848,34.48275862068966,-0.271,-0.484,0.836
46700,1755603009604,15.78,-29.84,-8.49,774,777,774,444,856,33.333333333333336,-0.269,-0.483,0.84
46729,1755603009634,15.83,-29.87,-8.48,768,789,766,370,867,34.48275862068966,-0.268,-0.481,0.84
46759,1755603009664,15.84,-29.86,-8.5,770,785,770,310,853,33.333333333333336,-0.268,-0.481,0.835
46789,1755603009693,15.83,-29.87,-8.52,773,785,766,341,857,33.333333333333336,-0.271,-0.485,0.835
46818,1755603009723,15.83,-29.9,-8.53,773,785,773,432,865,34.48275862068966,-0.274,-0.486,0.836
46848,1755603009752,15.89,-29.87,-8.49,771,778,772,430,855,33.333333333333336,-0.276,-0.485,0.835
46907,1755603009811,15.87,-29.89,-8.47,771,781,774,317,860,34.48275862068966,-0.272,-0.484,0.831
46937,1755603009841,15.85,-29.93,-8.5,771,778,778,404,852,33.333333333333336,-0.272,-0.485,0.839
46966,1755603009870,15.89,-29.89,-8.51,771,787,772,440,860,34.48275862068966,-0.272,-0.486,0.842
46995,1755603009900,15.98,-29.82,-8.49,772,782,775,394,851,34.48275862068966,-0.272,-0.487,0.837
47025,1755603009930,15.99,-29.85,-8.51,769,783,772,314,850,33.333333333333336,-0.272,-0.487,0.831
47055,1755603009959,16.0,-29.86,-8.5,773,780,766,338,855,33.333333333333336,-0.269,-0.485,0.828
47084,1755603009988,16.0,-29.89,-8.49,774,785,780,451,854,34.48275862068966,-0.269,-0.482,0.828
47114,1755603010018,15.97,-29.96,-8.5,770,787,774,414,864,33.333333333333336,-0.268,-0.481,0.831
47143,1755603010047,15.95,-30.0,-8.51,773,782,777,319,869,34.48275862068966,-0.269,-0.483,0.837
47173,1755603010077,15.95,-29.98,-8.51,766,778,775,315,845,33.333333333333336,-0.27,-0.486,0.838
47202,1755603010107,15.94,-29.93,-8.52,774,783,768,423,851,34.48275862068966,-0.27,-0.487,0.832
47232,1755603010136,15.9,-29.99,-8.56,769,783,775,427,853,33.333333333333336,-0.272,-0.487,0.828
47261,1755603010166,15.86,-30.02,-8.58,773,786,770,351,857,34.48275862068966,-0.275,-0.487,0.828
47291,1755603010196,15.88,-30.04,-8.57,768,784,770,307,847,33.333333333333336,-0.275,-0.488,0.83
47321,1755603010225,15.88,-30.11,-8.57,773,787,772,365,859,33.333333333333336,-0.275,-0.487,0.828
47350,1755603010255,15.84,-30.21,-8.56,767,779,776,444,864,34.48275862068966,-0.271,-0.486,0.83
47380,1755603010284,15.83,-30.31,-8.61,771,777,774,410,871,33.333333333333336,-0.267,-0.486,0.834
47409,1755603010314,15.85,-30.34,-8.66,771,775,774,310,853,34.48275862068966,-0.267,-0.488,0.836
47439,1755603010343,15.88,-30.32,-8.67,768,781,766,338,855,33.333333333333336,-0.27,-0.49,0.834
47469,1755603010373,15.9,-30.36,-8.67,774,781,776,442,871,33.333333333333336,-0.273,-0.494,0.834
47498,1755603010403,15.9,-30.28,-8.63,769,780,775,440,848,34.48275862068966,-0.273,-0.494,0.835
47528,1755603010432,15.93,-30.24,-8.56,768,787,775,363,851,33.333333333333336,-0.273,-0.493,0.833
47558,1755603010462,15.99,-30.22,-8.5,766,781,776,324,850,33.333333333333336,-0.273,-0.49,0.831
47587,1755603010492,16.08,-30.27,-8.47,763,778,771,360,855,34.48275862068966,-0.271,-0.49,0.83
47617,1755603010521,16.19,-30.26,-8.46,771,783,773,448,856,33.333333333333336,-0.272,-0.494,0.831
47647,1755603010551,16.27,-30.22,-8.44,770,779,766,415,845,33.333333333333336,-0.273,-0.498,0.826
47676,1755603010580,16.33,-30.24,-8.41,770,782,772,272,846,34.48275862068966,-0.274,-0.5,0.818
47706,1755603010610,16.3,-30.28,-8.41,770,783,776,308,846,33.333333333333336,-0.276,-0.498,0.816
47735,1755603010640,16.21,-30.31,-8.42,775,782,772,430,855,34.48275862068966,-0.276,-0.492,0.82
47765,1755603010670,16.16,-30.28,-8.45,769,783,776,413,863,33.333333333333336,-0.277,-0.49,0.829
47785,1755603010689,16.13,-30.29,-8.46,771,782,767,376,854,50.0,-0.279,-0.486,0.837
47815,1755603010719,16.21,-30.31,-8.46,764,777,773,353,849,33.333333333333336,-0.274,-0.483,0.844
47844,1755603010748,16.4,-30.25,-8.48,772,779,772,302,836,34.48275862068966,-0.268,-0.482,0.843
47874,1755603010778,16.57,-30.27,-8.54,767,781,772,284,854,33.333333333333336,-0.265,-0.483,0.837
47903,1755603010808,16.71,-30.29,-8.59,765,783,773,389,850,34.48275862068966,-0.267,-0.484,0.825
47933,1755603010837,16.77,-30.34,-8.66,769,780,772,416,851,33.333333333333336,-0.271,-0.487,0.81
47962,1755603010867,16.7,-30.47,-8.76,774,776,776,376,853,34.48275862068966,-0.281,-0.495,0.804
47992,1755603010896,16.63,-30.55,-8.79,766,776,777,311,865,33.333333333333336,-0.29,-0.503,0.809
48021,1755603010926,16.56,-30.55,-8.74,774,781,781,335,849,34.48275862068966,-0.297,-0.508,0.815
48051,1755603010955,16.59,-30.6,-8.61,769,782,771,432,853,33.333333333333336,-0.297,-0.507,0.826
48080,1755603010984,16.71,-30.59,-8.42,770,782,780,400,854,34.48275862068966,-0.293,-0.501,0.838
48110,1755603011014,16.83,-30.55,-8.27,772,781,772,299,857,33.333333333333336,-0.276,-0.491,0.843
48139,1755603011043,17.02,-30.52,-8.3,771,780,768,332,841,34.48275862068966,-0.261,-0.483,0.839
48169,1755603011073,17.05,-30.57,-8.52,768,780,771,424,854,33.333333333333336,-0.26,-0.481,0.825
48198,1755603011103,17.12,-30.69,-8.73,775,784,773,425,844,34.48275862068966,-0.277,-0.489,0.812
48228,1755603011132,17.17,-30.79,-8.85,768,787,774,354,855,33.333333333333336,-0.297,-0.506,0.807
48257,1755603011162,17.13,-30.78,-8.77,769,775,774,309,854,34.48275862068966,-0.314,-0.522,0.808
48317,1755603011221,17.29,-30.74,-8.3,768,782,771,431,834,33.333333333333336,-0.306,-0.51,0.806
48347,1755603011251,17.24,-30.73,-8.17,768,785,775,414,854,33.333333333333336,-0.297,-0.498,0.809
48406,1755603011310,17.05,-30.77,-8.15,765,784,775,331,847,33.333333333333336,-0.286,-0.493,0.819
48436,1755603011340,17.07,-30.78,-8.17,776,787,768,427,856,33.333333333333336,-0.284,-0.499,0.827
48465,1755603011370,17.1,-30.69,-8.17,772,776,768,435,846,34.48275862068966,-0.287,-0.502,0.828
48495,1755603011399,17.14,-30.55,-8.1,771,779,777,364,856,33.333333333333336,-0.288,-0.501,0.819
48524,1755603011429,17.14,-30.5,-8.07,766,787,775,320,847,34.48275862068966,-0.286,-0.493,0.81
48554,1755603011458,17.06,-30.58,-8.12,768,785,769,368,849,33.333333333333336,-0.288,-0.486,0.811
48583,1755603011488,16.93,-30.65,-8.2,769,782,774,444,855,34.48275862068966,-0.293,-0.488,0.82
48613,1755603011517,16.9,-30.66,-8.22,775,790,764,389,847,33.333333333333336,-0.293,-0.494,0.828
48642,1755603011546,16.99,-30.64,-8.18,774,779,773,300,845,34.48275862068966,-0.293,-0.5,0.829
48672,1755603011576,16.98,-30.54,-8.15,773,787,772,333,839,33.333333333333336,-0.293,-0.502,0.822
48701,1755603011605,16.93,-30.49,-8.11,772,773,772,453,852,34.48275862068966,-0.291,-0.497,0.814
48731,1755603011635,16.86,-30.53,-8.13,769,773,773,422,845,33.333333333333336,-0.291,-0.495,0.814
48760,1755603011665,16.8,-30.55,-8.16,771,778,770,312,849,34.48275862068966,-0.296,-0.495,0.816
48780,1755603011684,16.76,-30.57,-8.15,773,780,778,415,847,50.0,-0.301,-0.495,0.817
48810,1755603011714,16.71,-30.56,-8.09,767,779,772,314,837,33.333333333333336,-0.298,-0.492,0.82
48839,1755603011744,16.69,-30.56,-8.06,769,785,773,314,855,34.48275862068966,-0.292,-0.491,0.826
48869,1755603011773,16.69,-30.51,-8.06,767,779,774,436,855,33.333333333333336,-0.289,-0.491,0.829
48899,1755603011803,16.66,-30.49,-8.08,767,781,772,420,858,33.333333333333336,-0.288,-0.493,0.827
48928,1755603011832,16.65,-30.43,-8.05,771,783,771,335,852,34.48275862068966,-0.29,-0.495,0.829
48958,1755603011862,16.7,-30.44,-8.0,771,777,768,312,850,33.333333333333336,-0.287,-0.491,0.831
48988,1755603011892,16.85,-30.51,-8.0,765,779,772,367,843,33.333333333333336,-0.283,-0.485,0.83
49017,1755603011921,16.89,-30.47,-8.06,773,778,773,434,850,34.48275862068966,-0.288,-0.484,0.825
49047,1755603011951,16.82,-30.46,-8.14,771,782,772,403,848,33.333333333333336,-0.291,-0.489,0.816
49076,1755603011980,16.8,-30.5,-8.16,772,781,778,278,844,34.48275862068966,-0.295,-0.495,0.812
49105,1755603012010,16.8,-30.56,-8.12,773,781,766,322,845,34.48275862068966,-0.299,-0.5,0.813
49135,1755603012039,16.8,-30.61,-8.05,772,779,778,447,843,33.333333333333336,-0.299,-0.5,0.815
49164,1755603012069,16.72,-30.62,-8.0,770,784,778,426,853,34.48275862068966,-0.295,-0.495,0.819
49194,1755603012098,16.59,-30.72,-8.02,765,781,772,340,853,33.333333333333336,-0.289,-0.492,0.828
49223,1755603012128,16.56,-30.75,-8.06,767,788,768,309,851,34.48275862068966,-0.28,-0.488,0.836
49253,1755603012157,16.59,-30.73,-8.12,772,787,772,405,842,33.333333333333336,-0.276,-0.485,0.833
49283,1755603012187,16.56,-30.78,-8.23,770,782,778,447,834,33.333333333333336,-0.277,-0.488,0.822
49312,1755603012217,16.45,-30.83,-8.31,767,780,766,382,843,34.48275862068966,-0.279,-0.492,0.813
49342,1755603012246,16.41,-31.0,-8.37,770,774,770,318,850,33.333333333333336,-0.282,-0.496,0.814
49371,1755603012276,16.35,-31.06,-8.4,771,782,774,351,849,34.48275862068966,-0.286,-0.499,0.82
49401,1755603012306,16.3,-31.03,-8.42,765,781,772,432,842,33.333333333333336,-0.285,-0.502,0.821
49431,1755603012335,16.28,-31.03,-8.43,776,785,771,425,850,33.333333333333336,-0.282,-0.504,0.822
49461,1755603012365,16.32,-31.03,-8.45,772,787,773,304,843,33.333333333333336,-0.28,-0.505,0.825
49490,1755603012395,16.38,-30.96,-8.47,774,776,775,318,854,34.48275862068966,-0.28,-0.506,0.823
49520,1755603012424,16.41,-30.87,-8.48,764,783,778,407,847,33.333333333333336,-0.28,-0.505,0.819
49550,1755603012454,16.44,-30.83,-8.48,773,782,768,425,857,33.333333333333336,-0.278,-0.5,0.818
49579,1755603012483,16.45,-30.83,-8.51,770,773,771,381,842,34.48275862068966,-0.279,-0.495,0.822
49608,1755603012513,16.46,-30.82,-8.54,772,783,772,295,836,34.48275862068966,-0.279,-0.494,0.823
49638,1755603012542,16.47,-30.79,-8.56,776,779,775,331,838,33.333333333333336,-0.279,-0.497,0.825
49667,1755603012572,16.53,-30.8,-8.55,770,778,771,431,851,34.48275862068966,-0.281,-0.499,0.826
49697,1755603012601,16.57,-30.77,-8.53,770,777,770,394,850,33.333333333333336,-0.282,-0.5,0.828
49726,1755603012630,16.67,-30.74,-8.49,771,792,770,317,854,34.48275862068966,-0.279,-0.498,0.827
49756,1755603012660,16.77,-30.76,-8.5,773,781,770,336,850,33.333333333333336,-0.276,-0.494,0.82
49785,1755603012690,16.78,-30.82,-8.56,772,779,775,423,869,34.48275862068966,-0.28,-0.496,0.819
49815,1755603012719,16.84,-30.84,-8.6,768,778,771,422,847,33.333333333333336,-0.284,-0.5,0.818
49844,1755603012749,16.92,-30.82,-8.6,766,776,774,337,856,34.48275862068966,-0.289,-0.503,0.816
49865,1755603012769,16.95,-30.82,-8.6,772,784,766,434,849,47.61904761904762,-0.293,-0.503,0.812
49894,1755603012799,16.89,-30.8,-8.58,762,774,775,333,856,34.48275862068966,-0.294,-0.499,0.803
49924,1755603012828,16.68,-30.9,-8.6,771,779,772,320,847,33.333333333333336,-0.295,-0.498,0.806
49953,1755603012858,16.44,-31.05,-8.6,767,777,777,400,855,34.48275862068966,-0.294,-0.499,0.818
49983,1755603012887,16.44,-31.16,-8.54,772,782,770,447,854,33.333333333333336,-0.29,-0.503,0.825
50012,1755603012917,16.48,-31.23,-8.46,771,790,774,377,861,34.48275862068966,-0.283,-0.506,0.829
50042,1755603012946,16.49,-31.26,-8.41,771,781,771,316,846,33.333333333333336,-0.274,-0.504,0.828
50071,1755603012976,16.47,-31.25,-8.43,777,778,781,350,849,34.48275862068966,-0.266,-0.501,0.826
50101,1755603013005,16.38,-31.24,-8.52,771,785,769,454,848,33.333333333333336,-0.266,-0.502,0.822
50130,1755603013035,16.27,-31.24,-8.57,770,778,774,409,853,34.48275862068966,-0.27,-0.506,0.821
50160,1755603013064,16.28,-31.25,-8.55,770,777,778,320,850,33.333333333333336,-0.274,-0.509,0.826
50189,1755603013094,16.33,-31.18,-8.51,776,782,775,302,853,34.48275862068966,-0.276,-0.509,0.83
50219,1755603013124,16.36,-31.08,-8.48,769,782,776,406,850,33.333333333333336,-0.275,-0.507,0.827
50249,1755603013153,16.36,-31.05,-8.47,772,782,772,416,853,33.333333333333336,-0.273,-0.503,0.818
50278,1755603013183,16.34,-31.08,-8.51,770,780,768,356,851,34.48275862068966,-0.274,-0.504,0.816
50308,1755603013213,16.24,-31.04,-8.55,770,784,770,316,848,33.333333333333336,-0.276,-0.505,0.818
50338,1755603013243,16.2,-31.04,-8.55,769,785,767,343,846,33.333333333333336,-0.277,-0.504,0.819
50368,1755603013272,16.23,-31.07,-8.53,766,784,775,432,854,33.333333333333336,-0.278,-0.501,0.817
50486,1755603013390,16.2,-31.18,-8.52,771,783,770,423,850,33.333333333333336,-0.273,-0.503,0.821
50515,1755603013420,16.17,-31.2,-8.51,773,782,779,413,849,34.48275862068966,-0.274,-0.508,0.824
50545,1755603013449,16.14,-31.18,-8.49,773,778,771,350,841,33.333333333333336,-0.274,-0.508,0.825
50574,1755603013479,16.15,-31.18,-8.46,772,785,774,274,843,34.48275862068966,-0.273,-0.506,0.825
50604,1755603013508,16.14,-31.12,-8.45,770,779,775,339,850,33.333333333333336,-0.271,-0.501,0.824
50633,1755603013538,16.16,-31.08,-8.47,764,784,773,420,855,34.48275862068966,-0.271,-0.498,0.823
50663,1755603013567,16.15,-31.1,-8.54,772,785,778,381,849,33.333333333333336,-0.273,-0.501,0.82
50693,1755603013597,16.18,-31.14,-8.55,775,784,768,288,838,33.333333333333336,-0.278,-0.508,0.819
50722,1755603013626,16.16,-31.08,-8.5,769,780,777,324,851,34.48275862068966,-0.28,-0.51,0.819
50752,1755603013656,16.15,-31.04,-8.46,767,780,769,430,841,33.333333333333336,-0.277,-0.508,0.821
50781,1755603013685,16.14,-31.0,-8.43,770,788,776,400,848,34.48275862068966,-0.274,-0.503,0.824
50811,1755603013715,16.12,-30.98,-8.44,771,784,776,307,844,33.333333333333336,-0.273,-0.5,0.825
50840,1755603013744,16.09,-30.91,-8.47,767,786,773,328,842,34.48275862068966,-0.274,-0.498,0.826
50870,1755603013774,16.06,-30.9,-8.52,769,779,774,431,838,33.333333333333336,-0.276,-0.498,0.824
