timestamp_ms,recv_timestamp_ms,pitch,roll,yaw,flex1,flex2,flex3,flex4,flex5,sampling_hz,accel_x,accel_y,accel_z
59682,1755603024094,16.89,-28.32,-7.6,768,784,772,403,847,33.333333333333336,-0.29,-0.46,0.842
59770,1755603024101,16.89,-28.28,-7.59,771,776,772,415,839,34.48275862068966,-0.288,-0.459,0.842
59800,1755603024103,16.89,-28.3,-7.6,773,778,777,419,845,33.333333333333336,-0.289,-0.46,0.843
59829,1755603024105,16.9,-28.28,-7.58,772,782,774,350,847,34.48275862068966,-0.291,-0.461,0.844
59859,1755603024108,16.91,-28.27,-7.56,769,779,776,311,855,33.333333333333336,-0.291,-0.459,0.842
59889,1755603024109,16.89,-28.28,-7.57,773,783,769,363,848,33.333333333333336,-0.291,-0.459,0.841
59918,1755603024111,16.88,-28.28,-7.58,774,784,779,447,855,34.48275862068966,-0.289,-0.46,0.843
59948,1755603024114,16.88,-28.26,-7.57,766,786,771,388,849,33.333333333333336,-0.289,-0.461,0.844
59977,1755603024116,16.88,-28.24,-7.57,771,781,770,307,851,34.48275862068966,-0.29,-0.461,0.844
60007,1755603024118,16.9,-28.24,-7.56,767,779,774,331,849,33.333333333333336,-0.289,-0.461,0.843
60036,1755603024120,16.89,-28.24,-7.57,764,787,773,432,840,34.48275862068966,-0.289,-0.459,0.844
60066,1755603024122,16.88,-28.22,-7.58,774,779,764,410,846,33.333333333333336,-0.288,-0.458,0.844
60095,1755603024124,16.91,-28.21,-7.59,773,779,774,318,846,34.48275862068966,-0.288,-0.459,0.846
60125,1755603024126,16.94,-28.21,-7.6,769,774,770,310,852,33.333333333333336,-0.289,-0.46,0.846
60154,1755603024128,16.94,-28.19,-7.62,766,780,768,405,849,34.48275862068966,-0.29,-0.459,0.844
60184,1755603024130,16.97,-28.19,-7.63,765,784,778,453,845,33.333333333333336,-0.29,-0.456,0.842
60214,1755603024132,17.0,-28.22,-7.66,770,776,775,396,849,33.333333333333336,-0.291,-0.456,0.841
60243,1755603024134,17.0,-28.25,-7.67,769,779,776,272,848,34.48275862068966,-0.293,-0.459,0.843
60273,1755603024136,17.0,-28.27,-7.68,773,787,768,320,854,33.333333333333336,-0.291,-0.461,0.843
60303,1755603024139,17.0,-28.25,-7.68,771,780,768,426,863,33.333333333333336,-0.289,-0.46,0.842
60332,1755603024141,17.0,-28.28,-7.71,778,782,769,410,850,34.48275862068966,-0.29,-0.46,0.84
60362,1755603024142,16.97,-28.3,-7.71,768,786,770,306,842,33.333333333333336,-0.294,-0.461,0.841
60391,1755603024145,16.96,-28.28,-7.68,770,781,776,328,848,34.48275862068966,-0.293,-0.461,0.841
60421,1755603024147,16.94,-28.31,-7.69,769,775,772,414,842,33.333333333333336,-0.29,-0.46,0.842
60451,1755603024149,16.93,-28.35,-7.7,772,779,773,440,858,33.333333333333336,-0.289,-0.459,0.843
60480,1755603024151,16.9,-28.34,-7.71,770,786,767,381,845,34.48275862068966,-0.289,-0.461,0.843
60510,1755603024153,16.89,-28.37,-7.72,775,779,773,316,854,33.333333333333336,-0.289,-0.463,0.844
60539,1755603024155,16.9,-28.35,-7.7,768,780,771,367,847,34.48275862068966,-0.29,-0.464,0.844
60568,1755603024157,16.92,-28.34,-7.66,770,784,772,435,849,34.48275862068966,-0.29,-0.464,0.843
60598,1755603024159,16.91,-28.34,-7.64,772,780,773,387,849,33.333333333333336,-0.288,-0.462,0.842
60627,1755603024161,16.9,-28.35,-7.64,771,772,777,310,843,34.48275862068966,-0.288,-0.46,0.843
60657,1755603024163,16.89,-28.33,-7.64,770,774,765,324,857,33.333333333333336,-0.287,-0.459,0.847
60687,1755603024165,16.91,-28.29,-7.65,770,785,772,434,872,33.333333333333336,-0.286,-0.461,0.847
60716,1755603024167,16.91,-28.3,-7.66,772,773,776,437,850,34.48275862068966,-0.288,-0.462,0.842
60746,1755603024170,16.91,-28.31,-7.66,769,785,769,343,842,33.333333333333336,-0.291,-0.459,0.842
60776,1755603024172,16.91,-28.31,-7.65,773,785,770,322,843,33.333333333333336,-0.291,-0.46,0.845
60805,1755603024174,16.93,-28.31,-7.64,772,776,777,372,843,34.48275862068966,-0.289,-0.462,0.845
60835,1755603024176,16.97,-28.29,-7.63,768,785,773,443,845,33.333333333333336,-0.287,-0.46,0.844
60865,1755603024178,16.95,-28.27,-7.65,775,781,777,404,851,33.333333333333336,-0.288,-0.46,0.842
60894,1755603024181,16.93,-28.29,-7.67,770,784,773,301,850,34.48275862068966,-0.289,-0.46,0.841
60924,1755603024183,16.93,-28.3,-7.67,762,775,774,334,847,33.333333333333336,-0.292,-0.461,0.841
60953,1755603024184,16.94,-28.31,-7.64,770,794,775,442,844,34.48275862068966,-0.294,-0.462,0.842
60983,1755603024186,16.99,-28.3,-7.6,774,773,776,430,850,33.333333333333336,-0.292,-0.462,0.843
61012,1755603024188,16.99,-28.28,-7.58,770,782,768,311,849,34.48275862068966,-0.288,-0.461,0.842
61042,1755603024190,16.96,-28.29,-7.6,770,787,772,327,849,33.333333333333336,-0.287,-0.459,0.842
61071,1755603024192,16.95,-28.31,-7.61,771,783,772,411,852,34.48275862068966,-0.289,-0.46,0.843
61101,1755603024194,16.96,-28.3,-7.59,772,785,774,432,843,33.333333333333336,-0.291,-0.463,0.845
61130,1755603024196,16.99,-28.27,-7.55,770,780,777,369,850,34.48275862068966,-0.291,-0.462,0.843
61160,1755603024198,16.98,-28.25,-7.52,772,775,767,311,852,33.333333333333336,-0.289,-0.459,0.842
61189,1755603024201,16.95,-28.27,-7.51,773,782,767,342,853,34.48275862068966,-0.288,-0.457,0.843
61219,1755603024203,16.95,-28.27,-7.5,769,773,781,434,854,33.333333333333336,-0.288,-0.458,0.845
61278,1755603024207,16.91,-28.25,-7.46,773,778,774,324,843,34.48275862068966,-0.291,-0.462,0.841
61308,1755603024212,16.87,-28.26,-7.44,773,780,778,325,853,33.333333333333336,-0.291,-0.459,0.839
61337,1755603024242,16.8,-28.28,-7.44,772,784,775,426,834,34.48275862068966,-0.29,-0.457,0.841
61367,1755603024272,16.77,-28.27,-7.46,768,779,772,393,851,33.333333333333336,-0.29,-0.459,0.843
61397,1755603024301,16.76,-28.26,-7.46,764,787,776,324,843,33.333333333333336,-0.29,-0.461,0.845
61426,1755603024331,16.75,-28.23,-7.44,771,783,777,310,852,34.48275862068966,-0.292,-0.46,0.849
61455,1755603024360,16.77,-28.17,-7.43,767,792,770,394,851,34.48275862068966,-0.292,-0.455,0.849
61485,1755603024390,16.83,-28.15,-7.46,769,789,774,454,851,33.333333333333336,-0.291,-0.454,0.847
61515,1755603024420,16.89,-28.13,-7.47,772,784,775,402,838,33.333333333333336,-0.292,-0.459,0.843
61545,1755603024449,17.03,-28.2,-7.44,767,771,774,318,851,33.333333333333336,-0.287,-0.459,0.839
61574,1755603024479,17.08,-28.2,-7.45,774,783,770,328,853,34.48275862068966,-0.284,-0.456,0.838
61594,1755603024499,17.04,-28.22,-7.5,764,783,770,323,855,50.0,-0.285,-0.456,0.837
61624,1755603024528,16.94,-28.24,-7.56,772,779,775,347,855,33.333333333333336,-0.287,-0.458,0.837
61653,1755603024558,16.88,-28.27,-7.57,765,787,772,439,851,34.48275862068966,-0.296,-0.457,0.842
61683,1755603024587,16.82,-28.27,-7.55,771,780,770,428,849,33.333333333333336,-0.301,-0.457,0.848
61712,1755603024617,16.96,-28.24,-7.48,773,786,773,333,846,34.48275862068966,-0.301,-0.462,0.852
61742,1755603024647,17.11,-28.25,-7.36,774,781,772,312,852,33.333333333333336,-0.296,-0.46,0.847
61801,1755603024706,17.17,-28.34,-7.29,767,789,765,432,858,34.48275862068966,-0.281,-0.459,0.832
61831,1755603024736,16.93,-28.42,-7.38,768,785,776,378,854,33.333333333333336,-0.288,-0.463,0.837
61861,1755603024765,16.9,-28.46,-7.36,771,789,774,266,846,33.333333333333336,-0.294,-0.465,0.852
61890,1755603024795,16.94,-28.31,-7.29,767,777,769,313,854,34.48275862068966,-0.298,-0.462,0.859
61920,1755603024824,17.07,-28.23,-7.25,773,779,769,433,845,33.333333333333336,-0.297,-0.459,0.853
61949,1755603024854,17.22,-28.17,-7.18,767,786,770,421,848,34.48275862068966,-0.297,-0.458,0.843
61979,1755603024884,17.23,-28.2,-7.12,772,777,775,329,844,33.333333333333336,-0.291,-0.455,0.832
62009,1755603024913,17.14,-28.29,-7.17,769,782,772,313,848,33.333333333333336,-0.293,-0.46,0.832
62039,1755603024943,16.99,-28.35,-7.18,770,781,780,395,845,33.333333333333336,-0.295,-0.465,0.842
62068,1755603024973,17.03,-28.31,-7.1,773,776,766,434,851,34.48275862068966,-0.299,-0.467,0.85
62098,1755603025002,17.09,-28.22,-7.03,768,780,772,375,856,33.333333333333336,-0.296,-0.464,0.851
62127,1755603025032,17.11,-28.15,-7.0,773,776,776,257,852,34.48275862068966,-0.292,-0.457,0.847
62157,1755603025061,17.14,-28.14,-7.0,773,785,770,305,850,33.333333333333336,-0.292,-0.45,0.841
62186,1755603025091,17.1,-28.18,-7.03,769,781,767,423,854,34.48275862068966,-0.294,-0.452,0.84
62216,1755603025121,17.03,-28.19,-7.05,775,773,769,402,844,33.333333333333336,-0.296,-0.456,0.844
62236,1755603025141,17.06,-28.21,-7.04,773,780,768,376,859,50.0,-0.297,-0.456,0.851
62266,1755603025171,17.2,-28.19,-7.0,771,780,776,388,844,33.333333333333336,-0.295,-0.452,0.853
62286,1755603025191,17.23,-28.14,-7.02,777,791,779,394,848,50.0,-0.294,-0.45,0.85
62316,1755603025220,17.17,-28.09,-7.1,769,782,769,392,841,33.333333333333336,-0.292,-0.454,0.839
62345,1755603025250,17.13,-28.15,-7.14,767,781,772,297,842,34.48275862068966,-0.292,-0.458,0.833
62375,1755603025279,17.13,-28.23,-7.17,777,776,769,313,842,33.333333333333336,-0.293,-0.458,0.843
62434,1755603025339,17.15,-28.17,-7.23,772,781,770,418,847,33.333333333333336,-0.295,-0.456,0.849
62464,1755603025368,17.28,-28.16,-7.24,774,774,766,355,849,33.333333333333336,-0.296,-0.454,0.844
62493,1755603025398,17.32,-28.2,-7.28,771,787,766,333,857,34.48275862068966,-0.296,-0.456,0.835
62523,1755603025427,17.25,-28.24,-7.31,763,784,773,359,853,33.333333333333336,-0.297,-0.46,0.835
62582,1755603025487,17.35,-28.26,-7.32,768,783,771,429,853,33.333333333333336,-0.298,-0.459,0.849
62612,1755603025516,17.45,-28.23,-7.32,771,786,774,310,844,33.333333333333336,-0.3,-0.458,0.845
62641,1755603025546,17.54,-28.25,-7.31,774,785,775,322,855,34.48275862068966,-0.304,-0.458,0.84
62671,1755603025576,17.58,-28.29,-7.29,766,781,774,427,847,33.333333333333336,-0.302,-0.459,0.834
62701,1755603025605,17.61,-28.33,-7.27,769,784,773,425,854,33.333333333333336,-0.297,-0.465,0.835
62730,1755603025635,17.62,-28.35,-7.25,774,777,771,359,842,34.48275862068966,-0.297,-0.467,0.837
62760,1755603025664,17.58,-28.33,-7.23,767,781,772,322,847,33.333333333333336,-0.3,-0.468,0.841
62789,1755603025693,17.52,-28.27,-7.21,771,781,766,402,857,34.48275862068966,-0.299,-0.46,0.843
62818,1755603025723,17.61,-28.24,-7.2,768,780,776,457,847,34.48275862068966,-0.302,-0.455,0.846
62848,1755603025753,17.68,-28.19,-7.2,772,784,777,399,854,33.333333333333336,-0.3,-0.455,0.839
62907,1755603025811,17.69,-28.24,-7.2,774,788,774,359,873,33.333333333333336,-0.298,-0.459,0.831
62937,1755603025841,17.62,-28.26,-7.24,770,780,768,462,852,33.333333333333336,-0.301,-0.458,0.84
62966,1755603025871,17.6,-28.22,-7.26,770,780,770,437,857,34.48275862068966,-0.306,-0.46,0.843
62996,1755603025900,17.65,-28.19,-7.22,771,776,774,331,852,33.333333333333336,-0.307,-0.462,0.841
63025,1755603025930,17.71,-28.17,-7.16,770,783,775,331,854,34.48275862068966,-0.303,-0.457,0.837
63045,1755603025950,17.7,-28.17,-7.15,769,783,771,366,849,50.0,-0.298,-0.451,0.832
63075,1755603025979,17.57,-28.21,-7.2,769,785,777,350,842,33.333333333333336,-0.298,-0.453,0.833
63134,1755603026039,17.44,-28.19,-7.2,775,782,776,435,862,33.333333333333336,-0.302,-0.458,0.842
63154,1755603026059,17.44,-28.19,-7.17,766,775,769,386,861,50.0,-0.303,-0.459,0.839
63174,1755603026079,17.43,-28.22,-7.15,773,772,765,306,847,50.0,-0.304,-0.46,0.835
63204,1755603026108,17.32,-28.22,-7.13,771,782,775,417,846,33.333333333333336,-0.304,-0.461,0.836
63233,1755603026138,17.24,-28.22,-7.08,768,775,768,415,847,34.48275862068966,-0.302,-0.459,0.84
63263,1755603026167,17.25,-28.2,-7.02,767,783,772,319,848,33.333333333333336,-0.299,-0.453,0.844
63292,1755603026197,17.21,-28.18,-7.04,772,783,773,314,848,34.48275862068966,-0.298,-0.45,0.846
63322,1755603026227,17.18,-28.17,-7.07,772,780,770,398,853,33.333333333333336,-0.297,-0.451,0.841
63352,1755603026257,17.18,-28.26,-7.08,771,780,773,453,849,33.333333333333336,-0.296,-0.454,0.834
63382,1755603026286,17.13,-28.38,-7.1,765,779,777,402,848,33.333333333333336,-0.299,-0.462,0.836
63411,1755603026315,17.05,-28.35,-7.06,768,784,778,321,853,34.48275862068966,-0.299,-0.468,0.845
63440,1755603026345,17.11,-28.27,-6.94,773,777,775,344,853,34.48275862068966,-0.293,-0.465,0.85
63470,1755603026375,17.14,-28.2,-6.9,772,771,779,444,850,33.333333333333336,-0.287,-0.456,0.848
63500,1755603026405,17.08,-28.21,-6.97,772,779,769,411,846,33.333333333333336,-0.286,-0.451,0.843
63530,1755603026434,17.03,-28.17,-7.05,769,786,774,321,836,33.333333333333336,-0.292,-0.455,0.842
63559,1755603026464,16.99,-28.14,-7.06,772,774,768,325,847,34.48275862068966,-0.298,-0.459,0.844
63589,1755603026494,17.05,-28.13,-7.02,775,786,778,392,850,33.333333333333336,-0.299,-0.459,0.841
63619,1755603026523,16.62,-28.09,-7.0,770,783,776,448,853,33.333333333333336,-0.299,-0.459,0.839
63648,1755603026553,16.6,-28.06,-6.98,772,780,771,404,837,34.48275862068966,-0.296,-0.456,0.845
63678,1755603026583,16.64,-28.0,-6.97,773,787,768,308,852,33.333333333333336,-0.298,-0.452,0.851
63708,1755603026612,16.7,-27.95,-6.99,777,779,772,298,837,33.333333333333336,-0.293,-0.452,0.849
63767,1755603026671,16.85,-27.92,-7.05,771,784,773,417,843,33.333333333333336,-0.289,-0.456,0.838
63796,1755603026701,16.89,-27.93,-7.06,770,779,769,330,846,34.48275862068966,-0.29,-0.458,0.836
63826,1755603026730,16.89,-27.93,-7.08,770,784,774,315,845,33.333333333333336,-0.291,-0.456,0.836
63855,1755603026760,16.89,-27.99,-7.11,775,786,773,407,869,34.48275862068966,-0.293,-0.455,0.843
63885,1755603026789,16.9,-27.98,-7.12,768,778,767,441,860,33.333333333333336,-0.293,-0.452,0.849
63914,1755603026819,16.81,-27.91,-7.17,770,778,774,391,863,34.48275862068966,-0.296,-0.456,0.848
63944,1755603026848,16.77,-27.88,-7.15,772,779,773,323,845,33.333333333333336,-0.296,-0.455,0.846
63973,1755603026878,16.84,-27.89,-7.14,771,783,767,366,849,34.48275862068966,-0.295,-0.447,0.845
64003,1755603026907,16.88,-27.95,-7.16,765,777,771,446,852,33.333333333333336,-0.298,-0.446,0.843
64032,1755603026937,16.92,-28.05,-7.13,765,774,765,410,846,34.48275862068966,-0.298,-0.452,0.844
64062,1755603026966,16.99,-28.12,-7.06,771,782,779,271,850,33.333333333333336,-0.295,-0.457,0.849
64091,1755603026996,17.04,-28.09,-7.03,768,782,780,314,845,34.48275862068966,-0.293,-0.458,0.85
64121,1755603027026,17.07,-28.04,-7.02,768,777,767,418,862,33.333333333333336,-0.297,-0.458,0.845
64151,1755603027055,17.0,-28.02,-7.01,775,784,772,421,852,33.333333333333336,-0.303,-0.456,0.839
64180,1755603027085,16.92,-28.02,-6.99,769,782,766,353,840,34.48275862068966,-0.302,-0.453,0.837
64210,1755603027115,16.81,-28.02,-6.98,771,782,774,316,853,33.333333333333336,-0.298,-0.453,0.845
64240,1755603027144,16.8,-28.04,-6.97,769,772,771,380,846,33.333333333333336,-0.292,-0.451,0.854
64269,1755603027174,16.82,-27.94,-6.98,770,779,775,455,851,34.48275862068966,-0.291,-0.447,0.857
64299,1755603027203,16.81,-27.85,-7.04,771,783,769,413,849,33.333333333333336,-0.289,-0.447,0.851
64328,1755603027233,16.83,-27.86,-7.11,772,783,773,318,846,34.48275862068966,-0.289,-0.454,0.844
64358,1755603027263,16.92,-27.89,-7.12,766,788,773,329,849,33.333333333333336,-0.29,-0.457,0.84
64388,1755603027292,16.99,-27.9,-7.15,772,782,774,452,845,33.333333333333336,-0.291,-0.454,0.837
64417,1755603027322,16.99,-27.91,-7.19,771,776,778,435,854,34.48275862068966,-0.297,-0.453,0.835
64447,1755603027351,17.0,-27.98,-7.19,772,778,769,343,846,33.333333333333336,-0.3,-0.455,0.841
64476,1755603027381,17.0,-27.97,-7.14,773,782,775,301,852,34.48275862068966,-0.3,-0.458,0.842
64506,1755603027410,16.95,-27.95,-7.09,768,778,775,381,836,33.333333333333336,-0.298,-0.458,0.84
64535,1755603027440,16.94,-27.97,-7.05,774,781,773,443,846,34.48275862068966,-0.294,-0.452,0.843
64624,1755603027528,16.87,-28.01,-7.18,770,782,773,343,846,33.333333333333336,-0.291,-0.448,0.84
64653,1755603027558,16.9,-28.1,-7.23,766,784,777,439,846,34.48275862068966,-0.294,-0.454,0.838
64683,1755603027588,16.92,-28.14,-7.19,777,772,768,416,848,33.333333333333336,-0.297,-0.461,0.84
64713,1755603027618,16.93,-28.15,-7.15,774,777,772,337,846,33.333333333333336,-0.293,-0.46,0.843
64743,1755603027648,16.98,-28.15,-7.15,771,783,766,321,852,33.333333333333336,-0.29,-0.455,0.845
64772,1755603027677,16.94,-28.07,-7.2,775,785,778,399,845,34.48275862068966,-0.293,-0.457,0.846
64802,1755603027707,16.92,-28.0,-7.22,766,785,774,457,855,33.333333333333336,-0.295,-0.46,0.842
64832,1755603027737,17.0,-28.0,-7.19,769,780,773,401,849,33.333333333333336,-0.293,-0.454,0.838
64862,1755603027766,17.08,-28.05,-7.22,769,784,774,304,858,33.333333333333336,-0.295,-0.454,0.843
64891,1755603027796,17.09,-28.01,-7.25,764,784,774,338,844,34.48275862068966,-0.298,-0.46,0.844
64921,1755603027825,17.17,-28.02,-7.21,772,780,771,445,851,33.333333333333336,-0.298,-0.46,0.841
64950,1755603027855,17.23,-28.0,-7.17,774,780,775,426,850,34.48275862068966,-0.296,-0.456,0.84
64980,1755603027884,17.27,-28.07,-7.16,772,781,770,338,843,33.333333333333336,-0.294,-0.452,0.841
65009,1755603027914,17.31,-28.1,-7.17,774,777,769,327,843,34.48275862068966,-0.296,-0.453,0.844
65039,1755603027943,17.32,-28.09,-7.18,775,778,774,431,851,33.333333333333336,-0.3,-0.455,0.843
65068,1755603027973,17.33,-28.08,-7.17,773,784,769,436,849,34.48275862068966,-0.303,-0.457,0.84
65098,1755603028002,17.3,-28.07,-7.15,772,784,776,379,850,33.333333333333336,-0.302,-0.456,0.837
65127,1755603028032,17.28,-28.11,-7.14,764,784,773,323,847,34.48275862068966,-0.3,-0.456,0.836
65157,1755603028061,17.26,-28.13,-7.16,769,783,772,357,853,33.333333333333336,-0.298,-0.458,0.837
65216,1755603028121,17.25,-28.12,-7.14,773,776,772,394,846,33.333333333333336,-0.296,-0.462,0.839
65246,1755603028150,17.28,-28.12,-7.1,767,785,771,316,848,33.333333333333336,-0.293,-0.457,0.84
65275,1755603028180,17.25,-28.13,-7.13,771,783,770,314,848,34.48275862068966,-0.29,-0.452,0.842
65305,1755603028209,17.17,-28.11,-7.17,770,775,773,419,846,33.333333333333336,-0.289,-0.449,0.845
65334,1755603028239,17.2,-28.17,-7.23,769,787,770,420,844,34.48275862068966,-0.29,-0.45,0.844
65364,1755603028268,17.23,-28.21,-7.3,771,783,765,348,854,33.333333333333336,-0.3,-0.455,0.844
65393,1755603028298,17.24,-28.17,-7.3,765,775,773,314,843,34.48275862068966,-0.312,-0.463,0.843
65423,1755603028327,17.28,-28.14,-7.24,767,781,771,365,845,33.333333333333336,-0.313,-0.468,0.838
65452,1755603028357,17.35,-28.1,-7.14,771,781,772,449,843,34.48275862068966,-0.312,-0.477,0.841
65482,1755603028387,17.38,-27.98,-6.99,774,778,772,401,845,33.333333333333336,-0.31,-0.476,0.844
65512,1755603028417,17.36,-27.82,-6.85,768,779,773,299,845,33.333333333333336,-0.302,-0.462,0.842
65542,1755603028446,17.37,-27.8,-6.82,771,783,781,332,851,33.333333333333336,-0.291,-0.446,0.839
65571,1755603028476,17.39,-27.86,-6.86,771,776,779,429,849,34.48275862068966,-0.29,-0.439,0.84
65631,1755603028535,17.43,-28.03,-6.93,772,777,769,329,842,33.333333333333336,-0.295,-0.441,0.836
65660,1755603028564,17.38,-28.12,-6.97,772,781,768,313,850,34.48275862068966,-0.3,-0.45,0.838
65689,1755603028594,17.37,-28.15,-6.94,777,779,776,370,851,34.48275862068966,-0.3,-0.453,0.842
65719,1755603028623,17.4,-28.17,-6.91,775,783,768,439,848,33.333333333333336,-0.3,-0.456,0.845
65748,1755603028653,17.39,-28.15,-6.9,774,778,774,401,849,34.48275862068966,-0.304,-0.458,0.844
65778,1755603028683,17.36,-28.11,-6.86,771,784,775,312,843,33.333333333333336,-0.304,-0.46,0.841
65808,1755603028713,17.31,-28.06,-6.81,772,780,776,303,844,33.333333333333336,-0.303,-0.46,0.839
65828,1755603028733,17.26,-28.05,-6.78,768,779,770,326,850,50.0,-0.3,-0.458,0.838
65858,1755603028762,17.23,-28.06,-6.75,763,786,778,346,846,33.333333333333336,-0.301,-0.457,0.839
65887,1755603028792,17.19,-28.05,-6.71,773,773,776,442,843,34.48275862068966,-0.305,-0.453,0.844
65917,1755603028822,17.19,-27.99,-6.65,772,780,768,421,849,33.333333333333336,-0.306,-0.444,0.85
65947,1755603028852,17.26,-27.94,-6.65,772,781,776,342,849,33.333333333333336,-0.3,-0.44,0.852
65976,1755603028881,17.41,-27.93,-6.67,776,782,773,325,837,34.48275862068966,-0.301,-0.448,0.852
66006,1755603028911,17.57,-27.87,-6.66,772,776,780,387,843,33.333333333333336,-0.299,-0.453,0.841
66036,1755603028940,17.67,-27.82,-6.62,778,775,770,441,852,33.333333333333336,-0.295,-0.454,0.833
66065,1755603028970,17.66,-27.82,-6.7,771,780,776,354,845,34.48275862068966,-0.292,-0.451,0.83
66095,1755603029000,17.51,-27.8,-6.83,772,786,771,281,848,33.333333333333336,-0.299,-0.457,0.833
66125,1755603029029,17.42,-27.87,-6.87,771,782,779,336,846,33.333333333333336,-0.304,-0.461,0.846
66154,1755603029059,17.46,-27.77,-6.8,770,781,779,451,842,34.48275862068966,-0.306,-0.458,0.852
66184,1755603029088,17.51,-27.69,-6.74,773,773,771,408,847,33.333333333333336,-0.302,-0.445,0.843
66213,1755603029118,17.57,-27.8,-6.73,774,782,770,325,837,34.48275862068966,-0.298,-0.429,0.833
66243,1755603029147,17.61,-27.97,-6.82,772,776,776,331,849,33.333333333333336,-0.296,-0.427,0.835
66272,1755603029177,17.51,-28.06,-6.97,762,778,775,412,842,34.48275862068966,-0.302,-0.441,0.839
66302,1755603029206,17.49,-28.16,-7.03,769,789,773,451,845,33.333333333333336,-0.302,-0.454,0.841
66331,1755603029236,17.59,-28.2,-7.01,772,780,769,379,849,34.48275862068966,-0.3,-0.458,0.846
66361,1755603029266,17.62,-28.17,-7.05,770,782,772,308,844,33.333333333333336,-0.302,-0.459,0.846
66391,1755603029296,17.52,-28.09,-7.07,770,782,768,340,841,33.333333333333336,-0.303,-0.458,0.844
66421,1755603029325,17.56,-28.08,-7.06,771,775,770,431,854,33.333333333333336,-0.304,-0.454,0.846
66450,1755603029355,17.64,-28.05,-7.07,765,776,778,418,848,34.48275862068966,-0.308,-0.454,0.844
66480,1755603029384,17.62,-28.04,-7.07,770,781,773,308,836,33.333333333333336,-0.307,-0.455,0.837
66509,1755603029414,17.72,-28.07,-7.05,774,783,775,310,854,34.48275862068966,-0.306,-0.457,0.84
66539,1755603029443,17.75,-28.04,-7.08,771,782,772,429,846,33.333333333333336,-0.309,-0.458,0.839
66568,1755603029473,17.8,-28.05,-7.04,771,784,774,435,854,34.48275862068966,-0.31,-0.456,0.837
66598,1755603029502,17.83,-28.06,-7.01,770,781,772,354,846,33.333333333333336,-0.311,-0.454,0.834
66627,1755603029532,17.77,-28.1,-6.98,772,775,773,312,844,34.48275862068966,-0.313,-0.458,0.839
66657,1755603029561,17.82,-28.1,-6.88,770,781,776,327,850,33.333333333333336,-0.309,-0.461,0.845
66686,1755603029591,17.9,-28.01,-6.76,771,782,772,442,839,34.48275862068966,-0.304,-0.463,0.844
66716,1755603029620,17.88,-27.93,-6.69,769,774,777,409,846,33.333333333333336,-0.298,-0.459,0.837
66745,1755603029650,17.8,-27.97,-6.7,775,779,770,319,844,34.48275862068966,-0.294,-0.451,0.834
66775,1755603029679,17.7,-28.0,-6.77,770,785,776,334,847,33.333333333333336,-0.296,-0.448,0.834
66804,1755603029709,17.58,-28.01,-6.84,775,780,763,437,848,34.48275862068966,-0.304,-0.449,0.841
66834,1755603029739,17.58,-28.04,-6.86,773,779,772,443,856,33.333333333333336,-0.306,-0.446,0.845
66864,1755603029768,17.65,-28.05,-6.87,770,775,774,345,852,33.333333333333336,-0.307,-0.446,0.844
66893,1755603029798,17.7,-28.05,-6.89,772,780,769,313,848,34.48275862068966,-0.304,-0.453,0.841
66923,1755603029828,17.69,-28.04,-6.92,771,785,779,405,858,33.333333333333336,-0.303,-0.461,0.839
66973,1755603029878,17.69,-28.0,-6.92,771,774,773,412,852,33.333333333333336,-0.301,-0.457,0.84
67003,1755603029907,17.57,-27.97,-6.97,772,782,772,433,866,33.333333333333336,-0.304,-0.454,0.838
67032,1755603029937,17.38,-27.97,-7.02,770,774,769,399,848,34.48275862068966,-0.308,-0.452,0.838
67062,1755603029966,17.29,-27.94,-6.98,771,782,772,310,850,33.333333333333336,-0.309,-0.45,0.842
67091,1755603029996,17.31,-27.96,-6.95,772,781,773,349,844,34.48275862068966,-0.302,-0.447,0.843
67150,1755603030055,17.13,-28.03,-7.04,770,783,771,417,857,34.48275862068966,-0.297,-0.451,0.84
67180,1755603030085,17.08,-28.05,-7.08,769,773,774,331,843,33.333333333333336,-0.298,-0.455,0.848
67210,1755603030114,17.12,-27.98,-7.05,770,782,775,325,842,33.333333333333336,-0.301,-0.453,0.853
67239,1755603030144,17.16,-27.93,-7.04,768,784,772,362,856,34.48275862068966,-0.299,-0.451,0.849
67269,1755603030173,17.21,-27.91,-7.06,767,785,773,431,848,33.333333333333336,-0.299,-0.455,0.846
67298,1755603030203,17.32,-27.91,-7.02,774,772,773,358,851,34.48275862068966,-0.294,-0.456,0.844
67328,1755603030233,17.42,-27.88,-7.01,773,780,770,312,840,33.333333333333336,-0.287,-0.451,0.842
67358,1755603030262,17.4,-27.91,-7.1,763,773,767,350,854,33.333333333333336,-0.29,-0.45,0.841
67387,1755603030292,17.37,-27.98,-7.16,773,780,775,450,847,34.48275862068966,-0.294,-0.451,0.846
67417,1755603030322,17.42,-27.98,-7.17,770,776,769,426,852,33.333333333333336,-0.296,-0.452,0.847
67446,1755603030351,17.34,-27.98,-7.18,772,786,772,315,833,34.48275862068966,-0.301,-0.456,0.843
67476,1755603030381,17.29,-28.01,-7.14,771,785,772,281,850,33.333333333333336,-0.305,-0.458,0.841
67535,1755603030440,17.23,-28.05,-7.02,769,790,776,421,852,34.48275862068966,-0.299,-0.453,0.844
67565,1755603030469,17.17,-28.05,-7.02,772,784,772,345,849,33.333333333333336,-0.293,-0.45,0.844
67594,1755603030499,17.09,-28.09,-7.09,771,789,775,311,857,34.48275862068966,-0.291,-0.451,0.843
67624,1755603030528,17.04,-28.12,-7.15,774,779,770,369,848,33.333333333333336,-0.293,-0.456,0.842
67653,1755603030558,16.98,-28.12,-7.13,770,786,773,441,840,34.48275862068966,-0.294,-0.46,0.844
67683,1755603030587,17.04,-28.15,-7.11,771,781,772,405,849,33.333333333333336,-0.288,-0.461,0.846
67712,1755603030617,17.09,-28.11,-7.11,766,777,774,305,854,34.48275862068966,-0.29,-0.459,0.852
67742,1755603030646,17.07,-28.04,-7.17,771,789,774,329,848,33.333333333333336,-0.291,-0.456,0.849
67771,1755603030676,17.07,-27.98,-7.2,771,780,769,440,852,34.48275862068966,-0.293,-0.455,0.842
67801,1755603030706,17.09,-28.08,-7.24,772,773,775,428,848,33.333333333333336,-0.295,-0.456,0.844
67831,1755603030735,17.08,-28.08,-7.25,768,782,772,323,844,33.333333333333336,-0.295,-0.455,0.846
67860,1755603030765,17.14,-28.01,-7.23,774,780,770,317,849,34.48275862068966,-0.293,-0.456,0.847
67919,1755603030824,17.15,-28.05,-7.23,772,787,773,436,847,34.48275862068966,-0.288,-0.452,0.845
67949,1755603030853,17.14,-28.08,-7.27,769,786,765,380,843,33.333333333333336,-0.285,-0.452,0.847
67978,1755603030883,17.11,-28.1,-7.32,770,774,773,285,845,34.48275862068966,-0.287,-0.453,0.846
68008,1755603030912,17.05,-28.15,-7.38,764,778,768,342,847,33.333333333333336,-0.292,-0.455,0.845
68037,1755603030942,17.06,-28.18,-7.36,771,787,773,451,850,34.48275862068966,-0.294,-0.458,0.845
68067,1755603030972,17.08,-28.14,-7.32,774,781,768,411,844,33.333333333333336,-0.296,-0.458,0.845
68097,1755603031001,17.05,-28.19,-7.31,774,778,774,313,855,33.333333333333336,-0.292,-0.456,0.839
68126,1755603031031,17.04,-28.27,-7.31,770,779,775,327,842,34.48275862068966,-0.291,-0.46,0.839
68156,1755603031060,17.01,-28.31,-7.3,776,790,765,425,848,33.333333333333336,-0.291,-0.462,0.845
68185,1755603031090,17.04,-28.28,-7.26,773,781,771,422,843,34.48275862068966,-0.29,-0.462,0.847
68215,1755603031120,17.05,-28.28,-7.26,774,781,774,364,851,33.333333333333336,-0.29,-0.459,0.842
68245,1755603031149,17.02,-28.33,-7.29,773,781,773,318,844,33.333333333333336,-0.293,-0.46,0.841
68274,1755603031179,16.97,-28.31,-7.28,771,782,770,358,837,34.48275862068966,-0.294,-0.464,0.839
68304,1755603031209,16.94,-28.32,-7.23,767,787,772,460,851,33.333333333333336,-0.293,-0.464,0.839
68334,1755603031238,16.93,-28.32,-7.19,771,776,773,415,847,33.333333333333336,-0.289,-0.461,0.842
68363,1755603031268,16.89,-28.26,-7.19,767,783,780,319,850,34.48275862068966,-0.287,-0.459,0.845
68393,1755603031298,16.87,-28.22,-7.21,772,780,776,327,846,33.333333333333336,-0.284,-0.458,0.842
68452,1755603031357,16.83,-28.34,-7.29,770,781,771,426,852,33.333333333333336,-0.285,-0.456,0.842
