timestamp_ms,recv_timestamp_ms,pitch,roll,yaw,flex1,flex2,flex3,flex4,flex5,sampling_hz,accel_x,accel_y,accel_z
42061,1755602747068,14.26,18.66,5.96,790,886,772,391,805,33.333333333333336,-0.242,0.316,0.922
42090,1755602747070,14.26,18.59,5.9,786,889,773,405,816,34.48275862068966,-0.244,0.314,0.921
42120,1755602747072,14.25,18.54,5.85,786,882,767,361,812,33.333333333333336,-0.246,0.311,0.925
42178,1755602747076,14.28,18.54,5.85,787,881,779,345,814,34.48275862068966,-0.253,0.306,0.928
42208,1755602747078,14.29,18.56,5.88,793,875,778,409,814,33.333333333333336,-0.253,0.306,0.928
42230,1755602747080,14.29,18.57,5.9,780,882,777,329,818,45.45454545454545,-0.253,0.307,0.927
42259,1755602747082,14.29,18.58,5.93,782,879,777,411,816,34.48275862068966,-0.25,0.309,0.926
42288,1755602747083,14.32,18.58,5.92,789,887,767,402,817,34.48275862068966,-0.249,0.31,0.926
42317,1755602747085,14.32,18.58,5.93,783,879,771,314,810,34.48275862068966,-0.249,0.31,0.925
42347,1755602747087,14.35,18.55,5.92,785,880,773,333,809,33.333333333333336,-0.248,0.311,0.924
42377,1755602747089,14.37,18.51,5.93,782,884,772,366,817,33.333333333333336,-0.249,0.31,0.925
42406,1755602747092,14.37,18.51,5.92,788,880,772,392,817,34.48275862068966,-0.25,0.311,0.926
42435,1755602747094,14.39,18.51,5.9,783,886,768,333,819,34.48275862068966,-0.25,0.311,0.925
42464,1755602747095,14.42,18.49,5.86,788,875,776,329,815,34.48275862068966,-0.25,0.309,0.924
42494,1755602747097,14.46,18.44,5.81,783,880,771,392,819,33.333333333333336,-0.25,0.309,0.924
42524,1755602747100,14.47,18.42,5.78,784,876,772,413,816,33.333333333333336,-0.252,0.309,0.926
42553,1755602747101,14.5,18.41,5.76,781,882,770,371,813,34.48275862068966,-0.254,0.309,0.927
42583,1755602747103,14.55,18.38,5.76,786,884,770,320,814,33.333333333333336,-0.256,0.308,0.927
42612,1755602747105,14.55,18.36,5.79,786,883,765,363,817,34.48275862068966,-0.254,0.306,0.926
42641,1755602747107,14.59,18.32,5.8,787,880,775,434,814,34.48275862068966,-0.253,0.306,0.926
42671,1755602747109,14.6,18.29,5.82,784,884,773,412,816,33.333333333333336,-0.254,0.306,0.926
42700,1755602747111,14.61,18.31,5.84,783,883,778,337,816,34.48275862068966,-0.253,0.306,0.926
42729,1755602747114,14.6,18.32,5.83,785,879,776,332,809,34.48275862068966,-0.251,0.307,0.926
42788,1755602747173,14.58,18.27,5.79,783,883,777,396,817,34.48275862068966,-0.251,0.311,0.922
42818,1755602747202,14.61,18.2,5.73,786,876,770,320,822,33.333333333333336,-0.25,0.308,0.924
42847,1755602747232,14.61,18.14,5.69,783,879,772,316,809,34.48275862068966,-0.249,0.304,0.928
42876,1755602747261,14.67,18.12,5.65,786,869,772,410,817,34.48275862068966,-0.249,0.304,0.93
42906,1755602747291,14.74,18.11,5.63,785,888,776,407,824,33.333333333333336,-0.252,0.305,0.929
42965,1755602747350,14.86,18.02,5.62,787,874,778,330,810,33.333333333333336,-0.257,0.304,0.927
42994,1755602747379,14.9,17.98,5.63,786,873,771,392,818,34.48275862068966,-0.258,0.303,0.926
43023,1755602747409,14.93,17.92,5.63,787,880,777,433,814,34.48275862068966,-0.257,0.302,0.927
43053,1755602747438,14.96,17.88,5.61,787,875,779,372,824,33.333333333333336,-0.257,0.301,0.929
43082,1755602747467,14.97,17.86,5.6,783,876,771,326,815,34.48275862068966,-0.257,0.299,0.93
43112,1755602747497,14.99,17.84,5.59,785,880,772,383,814,33.333333333333336,-0.259,0.299,0.93
43141,1755602747526,14.98,17.82,5.59,786,886,777,433,818,34.48275862068966,-0.26,0.3,0.929
43171,1755602747555,14.96,17.8,5.59,783,880,775,390,811,33.333333333333336,-0.259,0.3,0.929
43200,1755602747585,14.96,17.78,5.57,787,888,776,287,814,34.48275862068966,-0.258,0.299,0.929
43230,1755602747615,14.91,17.77,5.55,783,885,771,322,813,33.333333333333336,-0.256,0.299,0.93
43259,1755602747644,14.91,17.74,5.5,780,876,771,412,816,34.48275862068966,-0.254,0.299,0.93
43289,1755602747673,14.9,17.71,5.45,779,879,769,400,815,33.333333333333336,-0.254,0.298,0.931
43318,1755602747703,14.9,17.68,5.39,786,882,772,338,816,34.48275862068966,-0.254,0.298,0.931
43348,1755602747732,14.92,17.64,5.31,786,882,769,329,808,33.333333333333336,-0.256,0.297,0.93
43377,1755602747762,14.94,17.58,5.24,784,883,777,405,814,34.48275862068966,-0.258,0.294,0.93
43406,1755602747792,14.96,17.53,5.17,786,883,777,410,818,34.48275862068966,-0.259,0.293,0.931
43466,1755602747850,15.02,17.45,5.04,787,873,765,312,823,33.333333333333336,-0.263,0.29,0.931
43495,1755602747880,15.01,17.41,5.01,786,879,766,364,817,34.48275862068966,-0.263,0.289,0.93
43524,1755602747909,15.02,17.37,4.98,786,879,774,424,815,34.48275862068966,-0.263,0.289,0.932
43554,1755602747939,15.06,17.32,4.97,787,881,776,405,818,33.333333333333336,-0.261,0.287,0.932
43584,1755602747968,15.1,17.29,4.94,782,887,772,330,813,33.333333333333336,-0.261,0.287,0.932
43613,1755602747998,15.16,17.25,4.91,784,882,779,345,821,34.48275862068966,-0.262,0.285,0.931
43642,1755602748027,15.22,17.21,4.89,783,888,773,408,813,34.48275862068966,-0.265,0.285,0.932
43672,1755602748057,15.25,17.19,4.88,782,884,773,401,824,33.333333333333336,-0.264,0.285,0.931
43701,1755602748086,15.32,17.16,4.84,781,877,775,323,818,34.48275862068966,-0.264,0.285,0.93
43731,1755602748115,15.33,17.11,4.81,785,886,767,317,818,33.333333333333336,-0.264,0.285,0.929
43760,1755602748145,15.36,17.06,4.77,782,881,775,382,816,34.48275862068966,-0.265,0.283,0.93
43790,1755602748175,15.4,17.02,4.72,785,880,771,362,813,33.333333333333336,-0.265,0.282,0.933
43819,1755602748204,15.42,17.02,4.69,784,876,779,356,824,34.48275862068966,-0.266,0.282,0.932
43849,1755602748233,15.45,17.02,4.64,786,879,774,320,815,33.333333333333336,-0.267,0.282,0.931
43878,1755602748263,15.47,17.0,4.62,788,884,774,375,818,34.48275862068966,-0.269,0.28,0.931
43927,1755602748312,15.51,16.96,4.6,785,878,768,346,821,50.0,-0.271,0.278,0.931
43957,1755602748342,15.55,16.94,4.6,785,878,778,398,822,33.333333333333336,-0.273,0.277,0.931
43986,1755602748371,15.56,16.93,4.61,784,883,768,371,823,34.48275862068966,-0.273,0.278,0.929
44045,1755602748430,15.61,16.86,4.62,784,882,767,366,815,33.333333333333336,-0.271,0.278,0.93
44074,1755602748459,16.08,16.84,4.61,778,885,767,431,816,34.48275862068966,-0.272,0.276,0.931
44104,1755602748488,16.09,16.8,4.63,781,879,769,390,817,33.333333333333336,-0.273,0.274,0.932
44133,1755602748518,16.09,16.82,4.65,787,881,774,319,814,34.48275862068966,-0.273,0.275,0.932
44162,1755602748547,16.1,16.82,4.67,790,887,773,352,813,34.48275862068966,-0.273,0.278,0.931
44192,1755602748577,16.11,16.81,4.67,786,886,776,426,810,33.333333333333336,-0.274,0.277,0.931
44221,1755602748606,16.11,16.81,4.67,781,875,775,402,813,34.48275862068966,-0.273,0.276,0.931
44280,1755602748665,16.09,16.82,4.66,784,884,779,345,807,34.48275862068966,-0.271,0.278,0.931
44310,1755602748695,16.06,16.84,4.66,786,884,773,414,814,33.333333333333336,-0.271,0.279,0.93
44339,1755602748724,16.05,16.83,4.65,779,880,768,422,812,34.48275862068966,-0.271,0.278,0.93
44369,1755602748753,16.02,16.83,4.65,785,888,768,369,817,33.333333333333336,-0.271,0.276,0.931
44398,1755602748783,16.0,16.83,4.66,788,876,775,287,814,34.48275862068966,-0.27,0.276,0.931
44427,1755602748812,15.98,16.83,4.68,789,882,772,332,826,34.48275862068966,-0.27,0.278,0.931
44457,1755602748841,15.93,16.84,4.69,786,888,769,414,812,33.333333333333336,-0.269,0.281,0.93
44486,1755602748871,15.96,16.82,4.66,789,882,771,366,814,34.48275862068966,-0.269,0.28,0.93
44515,1755602748900,15.94,16.79,4.66,786,885,771,318,825,34.48275862068966,-0.27,0.278,0.931
44545,1755602748930,15.95,16.76,4.65,783,888,765,346,816,33.333333333333336,-0.27,0.277,0.931
44575,1755602748959,15.95,16.76,4.64,785,884,774,405,809,33.333333333333336,-0.271,0.278,0.932
44604,1755602748989,15.94,16.77,4.65,780,882,775,387,814,34.48275862068966,-0.271,0.278,0.931
44663,1755602749048,15.94,16.73,4.64,787,885,774,299,818,34.48275862068966,-0.271,0.277,0.931
44692,1755602749077,15.96,16.7,4.64,787,876,775,406,820,34.48275862068966,-0.272,0.276,0.932
44722,1755602749106,15.94,16.72,4.66,786,877,773,403,814,33.333333333333336,-0.27,0.277,0.933
44751,1755602749136,15.96,16.73,4.64,782,889,777,296,811,34.48275862068966,-0.269,0.278,0.933
44800,1755602749185,15.93,16.74,4.62,789,880,777,373,815,50.0,-0.27,0.277,0.933
44830,1755602749214,15.93,16.75,4.61,786,887,775,356,814,33.333333333333336,-0.271,0.277,0.934
44888,1755602749273,15.92,16.82,4.63,786,887,769,408,814,34.48275862068966,-0.271,0.278,0.932
44918,1755602749303,15.92,16.8,4.65,780,880,765,331,814,33.333333333333336,-0.27,0.279,0.93
44947,1755602749332,15.92,16.76,4.67,787,878,775,286,817,34.48275862068966,-0.269,0.279,0.931
44977,1755602749362,15.92,16.74,4.68,782,883,769,366,817,33.333333333333336,-0.267,0.28,0.932
45006,1755602749391,15.91,16.73,4.69,784,883,772,411,819,34.48275862068966,-0.266,0.279,0.933
45035,1755602749421,15.9,16.73,4.7,785,879,776,365,814,34.48275862068966,-0.267,0.279,0.932
45065,1755602749450,15.92,16.69,4.7,781,882,778,327,815,33.333333333333336,-0.268,0.279,0.932
45094,1755602749480,15.94,16.66,4.71,787,885,774,359,813,34.48275862068966,-0.27,0.279,0.933
45124,1755602749509,15.94,16.64,4.74,786,878,773,417,811,33.333333333333336,-0.269,0.279,0.932
45154,1755602749538,15.96,16.59,4.28,782,873,773,397,812,33.333333333333336,-0.269,0.279,0.931
45183,1755602749568,15.95,16.5,4.27,789,880,778,339,819,34.48275862068966,-0.269,0.278,0.932
45212,1755602749597,15.95,16.49,4.26,783,886,772,315,828,34.48275862068966,-0.27,0.276,0.934
45242,1755602749626,15.92,16.51,4.25,786,883,774,412,823,33.333333333333336,-0.271,0.275,0.936
45271,1755602749656,15.91,16.53,4.26,782,883,776,403,813,34.48275862068966,-0.27,0.277,0.935
45300,1755602749685,15.89,16.53,4.25,787,882,765,332,818,34.48275862068966,-0.268,0.279,0.932
45330,1755602749715,15.86,16.51,4.21,785,883,768,327,819,33.333333333333336,-0.267,0.277,0.932
45360,1755602749744,15.85,16.5,4.19,782,882,774,412,812,33.333333333333336,-0.269,0.275,0.935
45389,1755602749774,15.85,16.51,4.19,784,873,774,430,809,34.48275862068966,-0.27,0.273,0.936
45418,1755602749803,15.85,16.53,4.2,784,878,769,352,811,34.48275862068966,-0.27,0.274,0.936
45448,1755602749833,15.86,16.54,4.21,780,884,778,344,814,33.333333333333336,-0.269,0.276,0.934
45477,1755602749862,15.84,16.54,4.21,781,886,774,376,815,34.48275862068966,-0.268,0.277,0.933
45507,1755602749892,15.84,16.53,4.19,785,874,779,436,817,33.333333333333336,-0.268,0.276,0.933
45536,1755602749922,15.85,16.52,4.19,785,872,774,397,828,34.48275862068966,-0.269,0.275,0.934
45557,1755602749941,15.84,16.52,4.2,786,879,773,407,817,47.61904761904762,-0.269,0.275,0.935
45586,1755602749971,15.84,16.53,4.2,790,876,776,369,811,34.48275862068966,-0.269,0.274,0.935
45615,1755602750000,15.84,16.53,4.22,791,884,773,320,818,34.48275862068966,-0.27,0.275,0.935
45644,1755602750029,15.85,16.53,4.23,788,887,768,360,817,34.48275862068966,-0.27,0.275,0.934
45703,1755602750088,15.84,16.53,4.26,788,886,775,390,818,34.48275862068966,-0.268,0.277,0.933
45733,1755602750117,15.83,16.53,4.26,788,881,780,335,815,33.333333333333336,-0.268,0.277,0.934
45762,1755602750147,15.82,16.53,4.26,784,883,775,347,813,34.48275862068966,-0.267,0.277,0.935
45791,1755602750176,15.82,16.54,4.26,781,876,771,430,816,34.48275862068966,-0.266,0.278,0.934
45821,1755602750205,15.84,16.53,4.23,785,882,776,407,816,33.333333333333336,-0.266,0.278,0.932
45850,1755602750235,15.83,16.5,4.21,784,878,769,317,817,34.48275862068966,-0.268,0.277,0.932
45880,1755602750265,15.82,16.49,4.21,787,884,769,337,820,33.333333333333336,-0.269,0.276,0.933
45909,1755602750294,15.85,16.49,4.2,785,875,774,406,815,34.48275862068966,-0.269,0.277,0.933
45939,1755602750324,15.82,16.5,4.19,786,872,778,426,814,33.333333333333336,-0.27,0.277,0.932
45968,1755602750353,15.78,16.48,4.19,784,886,774,368,811,34.48275862068966,-0.269,0.277,0.932
45998,1755602750382,15.78,16.47,4.18,784,885,778,339,814,33.333333333333336,-0.268,0.275,0.935
46027,1755602750412,15.76,16.5,4.19,784,883,776,386,811,34.48275862068966,-0.265,0.274,0.937
46056,1755602750441,15.76,16.53,4.19,786,881,771,410,815,34.48275862068966,-0.264,0.276,0.934
46086,1755602750470,15.74,16.54,4.18,786,882,778,385,814,33.333333333333336,-0.264,0.277,0.933
46115,1755602750500,15.73,16.52,4.16,779,880,771,309,811,34.48275862068966,-0.264,0.278,0.93
46144,1755602750529,15.75,16.48,4.13,784,883,777,347,816,34.48275862068966,-0.266,0.278,0.93
46174,1755602750559,15.73,16.46,4.14,788,879,773,417,816,33.333333333333336,-0.268,0.277,0.931
46203,1755602750588,15.75,16.44,4.14,787,878,775,402,819,34.48275862068966,-0.268,0.276,0.933
46233,1755602750617,15.77,16.44,4.15,788,882,776,333,816,33.333333333333336,-0.267,0.276,0.933
46262,1755602750647,15.78,16.44,4.16,782,876,768,352,818,34.48275862068966,-0.267,0.276,0.933
46292,1755602750676,15.78,16.44,4.15,784,880,776,421,807,33.333333333333336,-0.266,0.277,0.932
46321,1755602750706,15.79,16.45,4.15,784,880,775,392,820,34.48275862068966,-0.268,0.276,0.934
46350,1755602750736,15.78,16.48,4.16,785,872,775,317,823,34.48275862068966,-0.268,0.276,0.933
46380,1755602750765,15.78,16.49,4.16,787,883,773,333,819,33.333333333333336,-0.267,0.276,0.931
46409,1755602750794,15.76,16.49,4.16,791,873,768,398,817,34.48275862068966,-0.266,0.276,0.932
46439,1755602750824,15.76,16.48,4.16,787,883,774,422,811,33.333333333333336,-0.265,0.276,0.933
46468,1755602750853,15.74,16.49,4.16,784,890,777,363,826,34.48275862068966,-0.265,0.276,0.934
46497,1755602750882,15.74,16.51,4.15,782,882,776,346,815,34.48275862068966,-0.265,0.277,0.933
46527,1755602750912,15.73,16.52,4.15,787,880,774,382,817,33.333333333333336,-0.264,0.278,0.933
46586,1755602750971,15.73,16.53,4.13,782,876,777,378,817,34.48275862068966,-0.265,0.279,0.932
46616,1755602751000,15.73,16.52,4.13,784,880,770,325,809,33.333333333333336,-0.265,0.278,0.932
46645,1755602751030,15.73,16.51,4.13,784,879,776,364,818,34.48275862068966,-0.265,0.279,0.933
46674,1755602751059,15.76,16.5,4.12,781,891,782,431,817,34.48275862068966,-0.264,0.278,0.933
46704,1755602751089,15.77,16.5,4.13,783,884,774,423,811,33.333333333333336,-0.265,0.276,0.933
46733,1755602751118,15.72,16.52,4.14,787,881,777,344,814,34.48275862068966,-0.264,0.278,0.93
46763,1755602751148,15.74,16.5,4.13,789,876,776,309,813,33.333333333333336,-0.266,0.28,0.929
46792,1755602751177,15.71,16.47,4.11,781,883,773,387,813,34.48275862068966,-0.266,0.281,0.93
46822,1755602751207,15.72,16.43,4.07,782,881,773,393,813,33.333333333333336,-0.265,0.278,0.931
46852,1755602751237,15.72,16.42,4.06,789,879,775,357,811,33.333333333333336,-0.265,0.275,0.933
46881,1755602751266,15.71,16.42,4.05,788,881,775,333,816,34.48275862068966,-0.264,0.275,0.934
46910,1755602751295,15.7,16.43,4.05,786,889,771,362,814,34.48275862068966,-0.266,0.273,0.935
46940,1755602751325,15.7,16.43,4.07,788,874,767,417,815,33.333333333333336,-0.268,0.273,0.934
46969,1755602751354,15.71,16.43,4.11,785,891,777,383,816,34.48275862068966,-0.268,0.275,0.931
46999,1755602751384,15.7,16.41,4.12,784,877,771,319,817,33.333333333333336,-0.267,0.277,0.931
47028,1755602751413,15.67,16.4,4.13,786,887,773,332,821,34.48275862068966,-0.266,0.277,0.932
47087,1755602751472,15.71,16.37,4.13,779,879,773,405,815,34.48275862068966,-0.264,0.275,0.935
47116,1755602751501,15.7,16.38,4.13,782,876,775,327,809,34.48275862068966,-0.264,0.274,0.935
47175,1755602751560,15.71,16.4,4.13,788,880,768,415,815,34.48275862068966,-0.265,0.276,0.933
47205,1755602751590,15.7,16.4,4.14,784,889,776,397,821,33.333333333333336,-0.264,0.275,0.933
47234,1755602751619,15.72,16.37,4.12,786,884,771,338,823,34.48275862068966,-0.263,0.275,0.933
47264,1755602751648,15.71,16.35,4.11,788,880,773,333,819,33.333333333333336,-0.262,0.276,0.933
47293,1755602751678,15.71,16.35,4.1,781,878,771,383,823,34.48275862068966,-0.262,0.278,0.934
47322,1755602751707,15.69,16.81,4.08,784,877,772,428,812,34.48275862068966,-0.263,0.278,0.934
47352,1755602751736,15.68,16.77,4.05,785,877,776,361,814,33.333333333333336,-0.264,0.276,0.931
47381,1755602751766,15.69,16.69,4.02,785,883,776,330,820,34.48275862068966,-0.267,0.274,0.933
47411,1755602751795,15.68,16.65,4.03,787,881,777,356,815,33.333333333333336,-0.269,0.274,0.935
47440,1755602751825,15.7,16.64,4.04,782,884,773,416,817,34.48275862068966,-0.269,0.275,0.935
47469,1755602751854,15.69,16.63,4.04,784,875,776,373,817,34.48275862068966,-0.267,0.274,0.935
47499,1755602751884,15.68,16.59,4.02,781,881,778,323,819,33.333333333333336,-0.265,0.274,0.934
47528,1755602751914,15.68,16.52,3.98,784,874,778,342,817,34.48275862068966,-0.265,0.276,0.933
47558,1755602751943,15.69,16.47,3.94,784,878,772,421,816,33.333333333333336,-0.266,0.275,0.935
47588,1755602751973,15.68,16.47,3.91,781,884,773,394,814,33.333333333333336,-0.268,0.272,0.936
47617,1755602752002,15.7,16.47,3.9,785,875,776,318,810,34.48275862068966,-0.269,0.27,0.936
47647,1755602752032,15.7,16.46,3.9,785,876,773,312,818,33.333333333333336,-0.269,0.27,0.935
47676,1755602752061,15.69,16.45,3.89,779,885,777,386,807,34.48275862068966,-0.267,0.27,0.935
47735,1755602752120,15.7,16.47,3.86,779,879,770,338,816,34.48275862068966,-0.267,0.27,0.936
47765,1755602752150,15.7,16.49,3.85,787,880,775,318,812,33.333333333333336,-0.266,0.27,0.935
47794,1755602752179,15.71,16.49,3.84,781,882,767,370,809,34.48275862068966,-0.266,0.27,0.933
47823,1755602752208,15.74,16.46,3.83,786,880,772,439,817,34.48275862068966,-0.267,0.271,0.934
47853,1755602752238,15.72,16.45,3.84,790,877,776,403,823,33.333333333333336,-0.265,0.272,0.934
47882,1755602752267,15.73,16.45,3.82,783,882,769,320,819,34.48275862068966,-0.264,0.272,0.935
47912,1755602752297,15.73,16.45,3.82,785,884,770,341,812,33.333333333333336,-0.265,0.271,0.935
47941,1755602752326,15.71,16.46,3.82,788,879,771,428,819,34.48275862068966,-0.265,0.27,0.934
47971,1755602752356,15.76,16.44,3.81,784,877,773,415,822,33.333333333333336,-0.268,0.269,0.934
48000,1755602752385,15.77,16.43,3.83,784,882,768,348,823,34.48275862068966,-0.269,0.269,0.934
48030,1755602752415,15.79,16.43,3.84,787,888,770,339,816,33.333333333333336,-0.269,0.27,0.934
48059,1755602752444,15.8,16.44,3.84,786,869,774,405,819,34.48275862068966,-0.268,0.272,0.934
48088,1755602752473,15.82,16.44,3.82,785,883,778,434,816,34.48275862068966,-0.265,0.272,0.933
48118,1755602752503,15.83,16.42,3.79,783,882,778,330,810,33.333333333333336,-0.265,0.271,0.933
48147,1755602752532,15.84,16.41,3.75,785,880,771,317,814,34.48275862068966,-0.265,0.272,0.934
48176,1755602752561,15.85,16.41,3.73,786,886,773,360,815,34.48275862068966,-0.266,0.271,0.934
48206,1755602752591,15.84,16.41,3.7,784,880,774,425,815,33.333333333333336,-0.266,0.271,0.934
48265,1755602752650,15.89,16.36,3.63,790,880,774,309,814,34.48275862068966,-0.268,0.271,0.933
48294,1755602752679,15.88,16.35,3.6,782,885,774,344,821,34.48275862068966,-0.269,0.271,0.933
48324,1755602752708,15.89,16.33,3.58,784,881,774,423,816,33.333333333333336,-0.268,0.27,0.934
48353,1755602752738,15.89,16.31,3.57,787,875,778,408,820,34.48275862068966,-0.267,0.27,0.933
48382,1755602752767,15.9,16.27,3.52,786,878,775,325,811,34.48275862068966,-0.267,0.271,0.933
48412,1755602752797,15.9,16.26,3.49,785,879,773,358,812,33.333333333333336,-0.269,0.271,0.935
48441,1755602752826,15.91,16.23,3.45,786,876,779,434,814,34.48275862068966,-0.27,0.269,0.935
48470,1755602752855,15.94,16.22,3.43,790,878,771,407,810,34.48275862068966,-0.273,0.267,0.934
48500,1755602752885,15.96,16.2,3.42,785,886,775,342,816,33.333333333333336,-0.275,0.267,0.934
48529,1755602752914,15.97,16.19,3.4,787,883,769,330,813,34.48275862068966,-0.275,0.266,0.934
48558,1755602752944,15.96,16.18,3.41,783,879,771,374,816,34.48275862068966,-0.275,0.266,0.935
48588,1755602752973,15.97,16.19,3.4,786,886,774,403,815,33.333333333333336,-0.275,0.266,0.935
48618,1755602753002,15.98,16.19,3.4,784,877,773,341,812,33.333333333333336,-0.275,0.266,0.934
48647,1755602753032,15.99,16.19,3.4,785,877,777,326,814,34.48275862068966,-0.277,0.265,0.933
48676,1755602753061,16.0,16.18,3.42,788,871,769,367,820,34.48275862068966,-0.277,0.265,0.933
48706,1755602753090,16.08,16.15,3.42,786,884,774,427,817,33.333333333333336,-0.276,0.266,0.933
48735,1755602753120,16.08,16.15,3.44,787,877,772,378,814,34.48275862068966,-0.274,0.267,0.933
48765,1755602753149,16.04,16.15,3.44,783,876,778,322,819,33.333333333333336,-0.271,0.268,0.933
48794,1755602753179,16.08,16.13,3.41,784,883,773,351,813,34.48275862068966,-0.271,0.268,0.934
48823,1755602753208,16.09,16.14,3.4,787,890,777,418,820,34.48275862068966,-0.274,0.266,0.935
48882,1755602753267,16.11,16.14,3.47,784,880,776,308,813,34.48275862068966,-0.278,0.266,0.931
48912,1755602753296,16.09,16.11,3.51,786,881,772,343,815,33.333333333333336,-0.275,0.269,0.93
48941,1755602753326,16.07,16.08,3.51,787,887,773,427,826,34.48275862068966,-0.274,0.27,0.93
48970,1755602753355,15.63,16.04,3.49,786,875,774,419,815,34.48275862068966,-0.276,0.268,0.933
48999,1755602753385,15.64,16.05,3.52,784,873,777,342,815,34.48275862068966,-0.276,0.266,0.934
49029,1755602753414,15.66,16.05,3.53,787,886,774,348,814,33.333333333333336,-0.272,0.263,0.935
49058,1755602753443,15.66,16.04,3.54,788,885,774,384,814,34.48275862068966,-0.269,0.263,0.935
49087,1755602753473,15.65,16.06,3.55,785,883,772,409,820,34.48275862068966,-0.267,0.266,0.935
49117,1755602753502,15.65,16.08,3.52,780,880,773,349,816,33.333333333333336,-0.265,0.271,0.933
49146,1755602753531,15.65,16.08,3.46,785,880,775,287,809,34.48275862068966,-0.267,0.273,0.93
49176,1755602753561,15.65,16.04,3.4,788,872,769,383,816,33.333333333333336,-0.269,0.271,0.927
49205,1755602753590,15.67,15.97,3.34,786,883,765,410,820,34.48275862068966,-0.272,0.268,0.928
49235,1755602753620,15.67,15.87,3.3,779,879,776,334,819,33.333333333333336,-0.276,0.266,0.93
49264,1755602753649,15.67,15.83,3.29,782,882,772,309,814,34.48275862068966,-0.276,0.265,0.932
49293,1755602753678,15.7,15.8,3.27,783,885,775,369,815,34.48275862068966,-0.275,0.263,0.934
49323,1755602753708,15.73,15.76,3.25,786,874,773,422,810,33.333333333333336,-0.274,0.262,0.934
49352,1755602753737,15.77,15.68,3.21,786,888,772,393,811,34.48275862068966,-0.274,0.261,0.933
49382,1755602753767,15.81,15.63,3.19,786,887,775,334,817,33.333333333333336,-0.276,0.26,0.935
49411,1755602753796,15.82,15.6,3.19,782,884,766,358,814,34.48275862068966,-0.278,0.258,0.937
49441,1755602753825,15.81,15.61,3.21,783,879,769,432,821,33.333333333333336,-0.278,0.259,0.937
49470,1755602753855,15.82,15.6,3.2,787,885,772,416,812,34.48275862068966,-0.277,0.26,0.935
49529,1755602753913,15.79,15.48,3.25,785,883,782,354,809,33.333333333333336,-0.275,0.259,0.934
49558,1755602753943,15.79,15.43,3.26,783,878,779,420,813,34.48275862068966,-0.275,0.258,0.937
49587,1755602753972,15.8,15.44,3.28,791,880,773,405,817,34.48275862068966,-0.275,0.258,0.939
49646,1755602754031,15.78,15.44,3.31,786,875,778,323,813,34.48275862068966,-0.274,0.256,0.937
49676,1755602754061,15.8,15.42,3.31,785,879,777,381,810,33.333333333333336,-0.273,0.257,0.937
49705,1755602754090,15.81,15.42,3.32,785,886,773,413,814,34.48275862068966,-0.275,0.256,0.938
49735,1755602754119,15.79,15.44,3.34,788,871,776,368,815,33.333333333333336,-0.273,0.256,0.937
49764,1755602754149,15.8,15.44,3.34,781,883,778,315,818,34.48275862068966,-0.273,0.256,0.936
49793,1755602754178,15.77,15.45,3.35,787,885,776,359,812,34.48275862068966,-0.272,0.256,0.936
49823,1755602754208,15.78,15.44,3.35,781,884,771,425,815,33.333333333333336,-0.272,0.256,0.936
49852,1755602754237,15.77,15.43,3.37,786,878,779,377,816,34.48275862068966,-0.273,0.256,0.936
49881,1755602754266,15.77,15.44,3.39,785,881,771,316,813,34.48275862068966,-0.273,0.257,0.937
49911,1755602754296,15.79,15.42,3.39,789,878,775,337,816,33.333333333333336,-0.271,0.257,0.936
49940,1755602754326,15.84,15.39,3.37,788,881,776,421,805,34.48275862068966,-0.27,0.257,0.935
49960,1755602754346,15.86,15.36,3.35,786,886,777,325,810,50.0,-0.27,0.256,0.935
49990,1755602754375,15.87,15.36,3.34,785,879,779,406,804,33.333333333333336,-0.271,0.257,0.937
50020,1755602754405,15.91,15.35,3.32,787,875,774,391,818,33.333333333333336,-0.273,0.257,0.936
50040,1755602754425,15.92,15.35,3.33,785,883,774,376,814,50.0,-0.273,0.256,0.935
50089,1755602754474,15.92,15.33,3.33,783,880,769,406,810,34.48275862068966,-0.272,0.257,0.934
50119,1755602754504,15.91,15.32,3.31,792,879,776,369,823,33.333333333333336,-0.272,0.256,0.935
50178,1755602754563,15.91,15.34,3.33,787,877,771,350,820,33.333333333333336,-0.273,0.254,0.936
50207,1755602754592,15.94,15.33,3.32,783,878,774,434,813,34.48275862068966,-0.272,0.255,0.935
50266,1755602754651,15.96,15.29,3.3,783,887,775,323,814,33.333333333333336,-0.274,0.255,0.934
50295,1755602754680,15.99,15.27,3.29,784,881,773,323,809,34.48275862068966,-0.274,0.254,0.934
50324,1755602754709,16.04,15.25,3.29,780,879,775,412,814,34.48275862068966,-0.274,0.254,0.936
50354,1755602754739,16.08,15.23,3.28,784,882,769,409,815,33.333333333333336,-0.274,0.256,0.933
50383,1755602754768,16.06,15.2,3.26,783,879,772,338,813,34.48275862068966,-0.273,0.256,0.933
50413,1755602754798,16.07,15.18,3.23,785,881,767,320,817,33.333333333333336,-0.273,0.257,0.936
50442,1755602754827,16.1,15.19,3.2,786,884,771,382,815,34.48275862068966,-0.273,0.257,0.936
50472,1755602754857,16.11,15.17,3.17,779,880,765,410,813,33.333333333333336,-0.275,0.254,0.934
50501,1755602754886,16.07,15.14,3.17,785,880,771,352,821,34.48275862068966,-0.276,0.251,0.939
50530,1755602754915,16.1,15.12,3.17,785,882,769,322,821,34.48275862068966,-0.278,0.25,0.942
50560,1755602754944,16.11,15.15,3.2,786,878,770,359,817,33.333333333333336,-0.279,0.249,0.943
50589,1755602754974,16.09,15.21,3.24,787,882,775,413,813,34.48275862068966,-0.277,0.249,0.94
50619,1755602755003,16.1,15.22,3.27,788,883,771,396,816,33.333333333333336,-0.276,0.252,0.937
50648,1755602755033,16.07,15.22,3.28,779,885,770,288,818,34.48275862068966,-0.274,0.255,0.935
50678,1755602755062,16.07,15.2,3.27,786,887,774,343,815,33.333333333333336,-0.274,0.256,0.936
50707,1755602755092,16.05,15.21,3.28,778,881,770,421,815,34.48275862068966,-0.273,0.255,0.937
50766,1755602755151,16.03,15.22,3.25,783,878,768,324,812,33.333333333333336,-0.272,0.256,0.936
50795,1755602755180,16.04,15.21,3.22,786,876,773,341,812,34.48275862068966,-0.272,0.255,0.936
