timestamp_ms,recv_timestamp_ms,pitch,roll,yaw,flex1,flex2,flex3,flex4,flex5,sampling_hz,accel_x,accel_y,accel_z
50825,1755602756065,16.03,15.2,3.22,785,874,776,416,814,33.333333333333336,-0.274,0.254,0.936
50854,1755602756067,16.03,15.21,3.22,780,880,769,405,822,34.48275862068966,-0.276,0.254,0.936
50883,1755602756069,16.04,15.2,3.22,788,878,768,330,809,34.48275862068966,-0.276,0.254,0.936
50913,1755602756071,16.05,15.2,3.23,788,877,776,329,818,33.333333333333336,-0.275,0.254,0.936
50943,1755602756074,16.07,15.19,3.22,784,877,773,379,811,33.333333333333336,-0.274,0.253,0.936
50972,1755602756076,16.07,15.19,3.23,784,887,780,416,821,34.48275862068966,-0.273,0.254,0.936
51002,1755602756077,16.08,15.19,3.22,784,870,771,385,818,33.333333333333336,-0.273,0.255,0.936
51031,1755602756079,16.07,15.19,3.21,787,884,777,314,813,34.48275862068966,-0.274,0.256,0.935
51060,1755602756081,16.07,15.18,3.2,786,875,772,353,817,34.48275862068966,-0.274,0.254,0.936
51090,1755602756084,16.05,15.17,3.2,786,884,773,433,813,33.333333333333336,-0.275,0.253,0.937
51119,1755602756086,16.06,15.17,3.21,788,871,771,405,811,34.48275862068966,-0.274,0.255,0.938
51149,1755602756088,16.06,15.19,3.2,782,879,779,324,812,33.333333333333336,-0.272,0.256,0.937
51178,1755602756090,16.05,15.19,3.18,784,883,774,324,816,34.48275862068966,-0.271,0.256,0.937
51208,1755602756092,16.03,15.18,3.16,779,882,774,414,815,33.333333333333336,-0.271,0.256,0.937
51237,1755602756094,16.02,15.18,3.13,783,873,770,377,817,34.48275862068966,-0.271,0.256,0.937
51267,1755602756096,16.03,15.17,3.1,785,885,767,330,816,33.333333333333336,-0.273,0.254,0.938
51326,1755602756100,16.06,15.19,3.09,783,880,766,364,823,33.333333333333336,-0.276,0.253,0.938
51355,1755602756102,16.12,15.17,3.08,781,884,775,415,815,34.48275862068966,-0.276,0.254,0.937
51385,1755602756104,16.13,15.17,3.08,785,876,773,372,815,33.333333333333336,-0.275,0.254,0.936
51414,1755602756106,16.14,15.16,3.06,785,885,776,332,812,34.48275862068966,-0.273,0.256,0.935
51443,1755602756108,16.14,15.14,3.04,784,875,772,368,811,34.48275862068966,-0.274,0.256,0.936
51473,1755602756110,16.13,15.13,3.03,786,878,775,424,814,33.333333333333336,-0.275,0.253,0.938
51502,1755602756112,16.13,15.16,3.04,789,874,773,384,816,34.48275862068966,-0.276,0.253,0.939
51531,1755602756114,16.15,15.16,3.04,788,884,769,322,813,34.48275862068966,-0.275,0.254,0.937
51561,1755602756116,16.15,15.16,3.02,788,884,775,340,812,33.333333333333336,-0.274,0.254,0.937
51591,1755602756118,16.09,15.22,3.02,784,882,778,424,811,33.333333333333336,-0.272,0.254,0.937
51620,1755602756120,16.13,15.23,2.99,785,885,769,421,816,34.48275862068966,-0.274,0.253,0.935
51649,1755602756122,16.11,15.23,2.99,783,878,772,327,814,34.48275862068966,-0.275,0.254,0.935
51679,1755602756125,16.14,15.22,2.97,786,887,774,333,817,33.333333333333336,-0.276,0.255,0.934
51708,1755602756127,16.12,15.23,2.97,786,871,778,423,811,34.48275862068966,-0.275,0.255,0.935
51738,1755602756129,16.12,15.24,2.95,788,879,769,429,811,33.333333333333336,-0.273,0.255,0.935
51767,1755602756152,16.1,15.24,2.93,782,882,774,352,819,34.48275862068966,-0.272,0.254,0.935
51796,1755602756181,16.1,15.22,2.91,779,877,774,342,816,34.48275862068966,-0.273,0.253,0.935
51825,1755602756210,16.07,15.22,2.9,784,882,775,382,816,34.48275862068966,-0.274,0.253,0.937
51855,1755602756240,16.07,15.23,2.88,787,877,773,414,818,33.333333333333336,-0.274,0.253,0.937
51884,1755602756269,16.08,15.23,2.87,786,883,768,360,819,34.48275862068966,-0.275,0.253,0.937
51913,1755602756298,16.06,15.24,2.87,788,875,773,313,816,34.48275862068966,-0.274,0.255,0.934
51943,1755602756328,16.06,15.22,2.85,787,878,774,359,822,33.333333333333336,-0.274,0.255,0.935
51972,1755602756357,16.05,15.22,2.84,783,874,766,427,811,34.48275862068966,-0.274,0.254,0.936
52001,1755602756387,16.06,15.22,2.83,784,877,774,385,816,34.48275862068966,-0.275,0.253,0.936
52031,1755602756416,16.05,15.23,2.83,787,881,769,327,827,33.333333333333336,-0.275,0.254,0.936
52061,1755602756446,16.03,15.22,2.82,780,875,770,352,821,33.333333333333336,-0.274,0.254,0.935
52090,1755602756475,16.04,15.22,2.81,790,878,772,417,814,34.48275862068966,-0.274,0.254,0.936
52120,1755602756505,16.03,15.25,2.82,787,883,770,410,814,33.333333333333336,-0.276,0.254,0.937
52149,1755602756534,16.02,15.27,2.83,789,874,774,334,814,34.48275862068966,-0.275,0.254,0.936
52179,1755602756564,16.03,15.27,2.83,790,887,774,332,827,33.333333333333336,-0.275,0.254,0.936
52208,1755602756593,16.01,15.26,2.85,789,883,774,408,814,34.48275862068966,-0.274,0.253,0.936
52238,1755602756623,16.01,15.27,2.87,790,882,772,415,817,33.333333333333336,-0.274,0.255,0.937
52297,1755602756681,15.97,15.32,2.88,784,885,775,336,814,33.333333333333336,-0.271,0.256,0.936
52326,1755602756711,15.98,15.31,2.88,785,879,769,388,805,34.48275862068966,-0.272,0.256,0.935
52355,1755602756740,15.98,15.29,2.88,785,880,776,426,810,34.48275862068966,-0.273,0.256,0.936
52385,1755602756770,15.97,15.31,2.89,792,883,773,372,825,33.333333333333336,-0.272,0.257,0.936
52414,1755602756799,15.98,15.32,2.89,786,886,778,335,817,34.48275862068966,-0.271,0.258,0.936
52473,1755602756858,15.97,15.3,2.88,782,879,776,395,814,34.48275862068966,-0.27,0.256,0.936
52502,1755602756888,15.97,15.3,2.87,779,879,775,406,812,34.48275862068966,-0.271,0.255,0.938
52532,1755602756917,15.99,15.31,2.88,787,877,774,287,816,33.333333333333336,-0.272,0.256,0.938
52561,1755602756946,15.97,15.33,2.88,785,880,772,324,814,34.48275862068966,-0.271,0.257,0.936
52591,1755602756975,15.99,15.32,2.86,786,881,775,404,811,33.333333333333336,-0.27,0.258,0.935
52620,1755602757005,15.98,15.3,2.84,788,882,779,394,808,34.48275862068966,-0.27,0.258,0.936
52679,1755602757063,15.97,15.31,2.81,787,887,774,328,808,33.333333333333336,-0.27,0.257,0.937
52737,1755602757122,15.95,15.3,2.78,788,884,774,410,812,34.48275862068966,-0.27,0.257,0.936
52767,1755602757152,15.95,15.28,2.77,787,878,771,342,823,33.333333333333336,-0.271,0.257,0.936
52826,1755602757211,15.95,15.28,2.75,786,881,766,396,821,33.333333333333336,-0.27,0.257,0.936
52855,1755602757240,15.94,15.27,2.73,784,880,776,426,818,34.48275862068966,-0.27,0.256,0.935
52885,1755602757270,15.95,15.23,2.7,785,880,772,346,822,33.333333333333336,-0.271,0.256,0.935
52915,1755602757300,15.95,15.22,2.69,785,873,780,307,813,33.333333333333336,-0.272,0.256,0.937
52944,1755602757329,15.97,15.24,2.69,785,877,775,337,814,34.48275862068966,-0.274,0.256,0.939
52973,1755602757359,15.96,15.26,2.69,785,879,770,427,818,34.48275862068966,-0.272,0.256,0.937
53003,1755602757388,15.98,15.23,2.67,785,882,775,369,825,33.333333333333336,-0.271,0.256,0.936
53032,1755602757417,15.98,15.23,2.65,786,884,764,320,820,34.48275862068966,-0.269,0.256,0.938
53062,1755602757446,16.03,15.25,2.61,780,871,767,329,819,33.333333333333336,-0.269,0.256,0.94
53091,1755602757476,16.04,15.28,2.59,783,882,773,408,811,34.48275862068966,-0.271,0.255,0.937
53120,1755602757505,16.04,15.29,2.58,789,886,776,395,816,34.48275862068966,-0.274,0.254,0.933
53149,1755602757534,16.13,15.22,2.56,785,881,770,328,818,34.48275862068966,-0.277,0.254,0.932
53179,1755602757564,16.17,15.2,2.57,790,873,774,322,814,33.333333333333336,-0.281,0.253,0.934
53208,1755602757593,16.18,15.19,2.62,783,878,772,401,820,34.48275862068966,-0.281,0.254,0.935
53237,1755602757622,16.21,15.17,2.67,786,879,772,425,808,34.48275862068966,-0.278,0.253,0.935
53267,1755602757652,16.24,15.14,2.7,786,882,776,357,820,33.333333333333336,-0.275,0.254,0.936
53297,1755602757682,16.19,15.15,2.73,785,876,774,331,819,33.333333333333336,-0.273,0.255,0.937
53326,1755602757712,16.23,15.15,2.72,784,876,772,329,820,34.48275862068966,-0.273,0.256,0.937
53356,1755602757741,16.21,15.15,2.72,786,881,777,402,814,33.333333333333336,-0.273,0.256,0.936
53385,1755602757770,16.2,15.14,2.7,784,871,777,386,819,34.48275862068966,-0.273,0.257,0.934
53415,1755602757799,16.16,15.14,2.69,783,880,774,327,809,33.333333333333336,-0.273,0.257,0.935
53444,1755602757829,16.17,15.13,2.67,785,874,773,338,815,34.48275862068966,-0.274,0.255,0.936
53473,1755602757859,16.15,15.15,2.67,782,886,777,410,809,34.48275862068966,-0.276,0.254,0.938
53503,1755602757888,16.16,15.17,2.67,778,881,775,404,811,33.333333333333336,-0.277,0.254,0.937
53532,1755602757917,16.14,15.17,2.68,788,883,773,336,824,34.48275862068966,-0.276,0.254,0.936
53562,1755602757947,16.13,15.16,2.68,784,879,770,333,814,33.333333333333336,-0.275,0.255,0.935
53591,1755602757976,16.09,15.17,2.69,784,887,777,417,814,34.48275862068966,-0.274,0.256,0.936
53620,1755602758005,16.09,15.17,2.68,786,877,779,422,818,34.48275862068966,-0.273,0.255,0.937
53650,1755602758035,16.06,15.18,2.69,779,876,774,357,816,33.333333333333336,-0.273,0.255,0.937
53679,1755602758064,16.04,15.18,2.68,786,878,770,333,813,34.48275862068966,-0.272,0.256,0.937
53709,1755602758093,16.04,15.18,2.67,786,875,774,384,817,33.333333333333336,-0.274,0.255,0.937
53738,1755602758123,16.03,15.19,2.67,786,880,780,396,816,34.48275862068966,-0.274,0.255,0.937
53767,1755602758153,16.04,15.19,2.67,786,883,774,372,811,34.48275862068966,-0.275,0.255,0.937
53797,1755602758182,16.02,15.19,2.68,783,881,769,319,811,33.333333333333336,-0.275,0.255,0.937
53826,1755602758211,16.02,15.19,2.68,784,879,772,373,816,34.48275862068966,-0.273,0.256,0.937
53856,1755602758241,16.03,15.2,2.68,789,878,775,419,815,33.333333333333336,-0.272,0.256,0.938
53885,1755602758270,16.03,15.21,2.68,782,878,776,399,821,34.48275862068966,-0.272,0.256,0.938
53914,1755602758299,16.02,15.23,2.68,790,880,774,319,817,34.48275862068966,-0.272,0.257,0.938
53944,1755602758329,16.03,15.22,2.67,787,876,778,342,814,33.333333333333336,-0.271,0.256,0.937
53974,1755602758359,16.04,15.21,2.67,787,877,773,425,818,33.333333333333336,-0.272,0.256,0.938
54003,1755602758388,16.01,15.23,2.68,788,884,780,405,811,34.48275862068966,-0.271,0.257,0.938
54033,1755602758418,16.03,15.25,2.68,785,885,765,342,816,33.333333333333336,-0.273,0.256,0.939
54062,1755602758447,16.01,15.27,2.7,777,884,771,334,819,34.48275862068966,-0.271,0.256,0.938
54121,1755602758506,16.03,15.25,2.7,787,885,779,420,811,34.48275862068966,-0.271,0.258,0.936
54180,1755602758565,15.98,15.26,2.69,785,884,777,332,813,33.333333333333336,-0.269,0.258,0.937
54209,1755602758594,16.0,15.24,2.67,786,884,778,382,821,34.48275862068966,-0.27,0.257,0.936
54239,1755602758624,16.0,15.22,2.67,783,886,777,419,828,33.333333333333336,-0.272,0.255,0.936
54268,1755602758653,16.0,15.24,2.69,783,879,777,386,809,34.48275862068966,-0.273,0.256,0.937
54298,1755602758682,15.98,15.26,2.72,783,881,771,310,811,33.333333333333336,-0.273,0.257,0.937
54327,1755602758712,15.97,15.28,2.73,777,870,770,352,814,34.48275862068966,-0.269,0.259,0.936
54356,1755602758741,15.95,15.28,2.71,790,872,776,416,815,34.48275862068966,-0.267,0.259,0.936
54386,1755602758771,15.93,15.27,2.66,784,879,771,399,811,33.333333333333336,-0.267,0.259,0.937
54415,1755602758800,15.94,15.26,2.62,787,873,774,312,811,34.48275862068966,-0.271,0.257,0.938
54444,1755602758830,15.91,15.3,2.61,788,879,770,329,814,34.48275862068966,-0.272,0.257,0.937
54474,1755602758859,15.91,15.3,2.6,785,884,775,403,816,33.333333333333336,-0.271,0.257,0.935
54503,1755602758889,15.89,15.29,2.6,779,876,774,397,818,34.48275862068966,-0.27,0.257,0.935
54533,1755602758918,15.89,15.28,2.58,784,884,776,346,814,33.333333333333336,-0.269,0.258,0.936
54562,1755602758947,15.89,15.28,2.56,785,879,775,330,809,34.48275862068966,-0.269,0.259,0.937
54592,1755602758977,15.87,15.29,2.54,780,882,777,405,808,33.333333333333336,-0.268,0.258,0.937
54621,1755602759006,15.88,15.28,2.52,783,878,771,409,811,34.48275862068966,-0.269,0.258,0.936
54651,1755602759036,15.87,15.28,2.51,784,881,774,365,817,33.333333333333336,-0.27,0.257,0.936
54680,1755602759065,15.87,15.27,2.51,788,886,774,290,813,34.48275862068966,-0.27,0.257,0.936
54710,1755602759095,15.87,15.27,2.51,783,885,775,338,816,33.333333333333336,-0.27,0.257,0.937
54768,1755602759154,15.86,15.28,2.5,787,880,770,390,812,34.48275862068966,-0.269,0.257,0.937
54798,1755602759183,15.86,15.28,2.5,786,876,778,311,806,33.333333333333336,-0.269,0.257,0.937
54827,1755602759213,15.87,15.27,2.49,789,872,777,349,814,34.48275862068966,-0.27,0.257,0.937
54857,1755602759242,15.86,15.28,2.5,785,882,776,414,813,33.333333333333336,-0.269,0.258,0.937
54886,1755602759272,15.85,15.29,2.49,783,892,773,412,818,34.48275862068966,-0.267,0.258,0.936
54916,1755602759301,15.83,15.29,2.48,777,880,776,350,817,33.333333333333336,-0.266,0.258,0.936
54945,1755602759331,15.83,15.28,2.45,786,872,777,339,821,34.48275862068966,-0.267,0.258,0.937
54975,1755602759361,15.84,15.27,2.43,785,872,769,403,814,33.333333333333336,-0.268,0.256,0.937
55005,1755602759390,15.84,15.27,2.43,788,872,775,427,812,33.333333333333336,-0.27,0.256,0.936
55034,1755602759419,15.84,15.28,2.44,784,871,772,375,823,34.48275862068966,-0.27,0.257,0.936
55064,1755602759448,15.84,15.27,2.44,782,884,771,315,817,33.333333333333336,-0.268,0.257,0.936
55093,1755602759478,15.82,15.27,2.43,782,876,776,348,811,34.48275862068966,-0.266,0.258,0.936
55152,1755602759537,15.8,15.25,2.39,786,888,775,395,810,34.48275862068966,-0.266,0.257,0.937
55181,1755602759566,15.8,15.25,2.37,786,875,774,323,813,34.48275862068966,-0.269,0.256,0.937
55211,1755602759596,15.79,15.26,2.38,785,882,774,345,812,33.333333333333336,-0.27,0.256,0.937
55240,1755602759625,15.79,15.26,2.38,788,879,769,418,814,34.48275862068966,-0.269,0.256,0.937
55299,1755602759684,15.77,15.26,2.37,787,880,777,328,812,33.333333333333336,-0.266,0.257,0.937
55328,1755602759714,15.78,15.27,2.36,787,883,770,333,818,34.48275862068966,-0.266,0.257,0.937
55358,1755602759743,15.78,15.28,2.34,781,884,771,407,820,33.333333333333336,-0.267,0.257,0.937
55387,1755602759772,15.79,15.28,2.34,781,884,776,430,812,34.48275862068966,-0.268,0.257,0.936
55417,1755602759802,15.8,15.26,2.33,783,881,771,367,817,33.333333333333336,-0.266,0.257,0.935
55446,1755602759831,15.83,15.22,2.31,786,879,769,331,820,34.48275862068966,-0.267,0.256,0.937
55475,1755602759860,15.81,15.22,2.31,783,880,774,380,816,34.48275862068966,-0.267,0.256,0.939
55505,1755602759889,15.82,15.23,2.3,781,877,778,433,814,33.333333333333336,-0.267,0.256,0.937
55534,1755602759919,15.82,15.21,2.28,786,886,774,380,820,34.48275862068966,-0.267,0.255,0.936
55563,1755602759948,15.79,15.21,2.27,783,880,775,329,824,34.48275862068966,-0.267,0.256,0.937
55593,1755602759978,15.81,15.2,2.25,786,875,773,376,817,33.333333333333336,-0.268,0.256,0.937
55622,1755602760008,15.8,15.16,2.24,789,878,769,425,810,34.48275862068966,-0.267,0.255,0.935
55652,1755602760037,15.82,15.11,2.23,787,882,774,380,818,33.333333333333336,-0.268,0.254,0.936
55681,1755602760066,15.83,15.09,2.22,781,880,770,324,818,34.48275862068966,-0.269,0.254,0.937
55711,1755602760096,15.81,15.1,2.22,790,879,776,337,818,33.333333333333336,-0.267,0.255,0.937
55731,1755602760116,15.81,15.1,2.22,784,893,776,347,819,50.0,-0.265,0.256,0.937
55751,1755602760136,15.82,15.09,2.19,784,872,782,419,814,50.0,-0.265,0.256,0.936
55780,1755602760165,15.8,15.08,2.18,785,879,772,352,820,34.48275862068966,-0.267,0.254,0.937
55810,1755602760195,15.79,15.08,2.17,789,890,776,382,818,33.333333333333336,-0.268,0.252,0.939
55840,1755602760225,15.82,15.09,2.17,787,882,772,443,823,33.333333333333336,-0.269,0.253,0.938
55869,1755602760254,15.81,15.09,2.17,784,883,774,421,814,34.48275862068966,-0.269,0.253,0.937
55898,1755602760283,15.79,15.08,2.17,787,872,769,333,811,34.48275862068966,-0.268,0.252,0.937
55928,1755602760313,15.81,15.05,2.15,782,872,769,344,813,33.333333333333336,-0.269,0.253,0.939
55957,1755602760342,15.78,15.08,2.16,785,880,777,423,819,34.48275862068966,-0.268,0.254,0.939
55986,1755602760371,15.78,15.09,2.15,781,883,776,392,811,34.48275862068966,-0.268,0.253,0.938
56016,1755602760400,15.76,15.09,2.14,784,873,774,324,812,33.333333333333336,-0.267,0.252,0.938
56045,1755602760430,15.77,15.07,2.13,786,883,770,337,814,34.48275862068966,-0.269,0.252,0.938
56074,1755602760459,15.77,15.07,2.14,782,883,779,399,816,34.48275862068966,-0.27,0.252,0.939
56104,1755602760489,15.75,15.09,2.14,789,873,778,425,814,33.333333333333336,-0.269,0.252,0.939
56133,1755602760518,15.76,15.07,2.15,783,887,771,351,815,34.48275862068966,-0.269,0.252,0.939
56163,1755602760548,15.76,15.07,2.14,782,885,775,335,812,33.333333333333336,-0.267,0.252,0.938
56192,1755602760577,15.77,15.05,2.13,782,876,772,396,808,34.48275862068966,-0.268,0.252,0.939
56222,1755602760607,15.75,15.07,2.14,787,877,776,423,816,33.333333333333336,-0.268,0.252,0.94
56251,1755602760637,15.77,15.06,2.12,787,874,778,397,816,34.48275862068966,-0.268,0.253,0.939
56310,1755602760696,15.77,15.02,2.13,784,883,771,345,813,34.48275862068966,-0.268,0.251,0.939
56340,1755602760725,15.76,15.03,2.13,782,878,773,385,813,33.333333333333336,-0.268,0.252,0.94
56369,1755602760754,15.78,15.03,2.12,786,880,770,387,812,34.48275862068966,-0.267,0.252,0.94
56399,1755602760784,15.77,15.03,2.11,787,881,774,320,805,33.333333333333336,-0.266,0.252,0.939
56428,1755602760813,15.8,14.99,2.08,783,876,773,330,815,34.48275862068966,-0.267,0.246,0.94
56487,1755602760872,15.83,14.98,2.08,782,883,778,406,813,34.48275862068966,-0.268,0.248,0.94
56516,1755602760902,15.85,14.95,2.06,785,881,776,362,821,34.48275862068966,-0.265,0.25,0.938
56546,1755602760931,15.83,14.91,2.05,787,879,774,341,819,33.333333333333336,-0.265,0.249,0.938
56575,1755602760960,15.86,14.87,2.02,788,869,768,386,812,34.48275862068966,-0.266,0.248,0.942
56634,1755602761020,15.87,14.9,2.04,780,883,770,383,814,34.48275862068966,-0.269,0.25,0.94
56693,1755602761079,15.85,14.83,2.02,788,885,774,342,809,34.48275862068966,-0.267,0.249,0.939
56723,1755602761108,15.87,14.8,2.0,783,883,774,422,814,33.333333333333336,-0.27,0.248,0.942
56752,1755602761138,15.86,14.82,2.01,782,881,774,400,810,34.48275862068966,-0.271,0.247,0.943
56782,1755602761167,15.86,14.84,2.01,787,881,775,331,811,33.333333333333336,-0.269,0.248,0.941
56841,1755602761226,15.85,14.81,1.98,780,876,781,406,814,33.333333333333336,-0.27,0.249,0.94
56870,1755602761255,15.85,14.81,1.97,788,886,774,406,812,34.48275862068966,-0.271,0.248,0.942
56899,1755602761284,15.83,14.84,1.97,785,883,775,332,810,34.48275862068966,-0.27,0.249,0.942
56929,1755602761314,15.83,14.85,1.95,785,885,774,339,817,33.333333333333336,-0.269,0.249,0.941
56958,1755602761343,15.82,14.85,1.94,787,879,773,398,814,34.48275862068966,-0.268,0.249,0.94
56987,1755602761373,15.83,14.83,1.93,781,879,775,416,815,34.48275862068966,-0.268,0.249,0.941
57017,1755602761402,15.83,14.83,1.91,789,886,773,390,812,33.333333333333336,-0.27,0.249,0.942
57047,1755602761432,15.82,14.84,1.92,782,885,770,343,811,33.333333333333336,-0.269,0.249,0.941
57076,1755602761462,15.82,14.83,1.92,782,882,774,363,819,34.48275862068966,-0.268,0.249,0.94
57106,1755602761491,15.81,14.81,1.9,786,886,777,439,814,33.333333333333336,-0.268,0.249,0.94
57135,1755602761521,15.8,14.8,1.9,787,882,774,424,817,34.48275862068966,-0.269,0.248,0.942
57165,1755602761550,15.81,14.82,1.89,780,889,771,324,810,33.333333333333336,-0.269,0.249,0.942
57194,1755602761579,15.82,14.82,1.89,786,881,769,326,821,34.48275862068966,-0.269,0.249,0.94
57224,1755602761609,15.83,14.8,1.88,785,879,776,414,817,33.333333333333336,-0.27,0.25,0.939
57253,1755602761638,15.83,14.78,1.86,786,883,775,413,813,34.48275862068966,-0.27,0.25,0.939
57282,1755602761667,15.85,14.77,1.85,790,882,767,339,813,34.48275862068966,-0.27,0.249,0.941
57312,1755602761697,15.84,14.77,1.85,783,882,769,296,819,33.333333333333336,-0.269,0.247,0.941
57341,1755602761726,15.84,14.78,1.86,785,883,776,391,816,34.48275862068966,-0.269,0.247,0.941
57371,1755602761756,15.85,14.8,1.87,787,889,773,403,819,33.333333333333336,-0.27,0.247,0.942
57400,1755602761785,15.84,14.83,1.89,786,876,772,353,816,34.48275862068966,-0.269,0.249,0.94
57429,1755602761814,15.85,14.8,1.89,784,885,774,325,816,34.48275862068966,-0.268,0.249,0.938
57459,1755602761844,15.83,14.78,1.89,782,879,765,380,815,33.333333333333336,-0.268,0.249,0.938
57488,1755602761874,15.83,14.77,1.88,787,881,774,429,819,34.48275862068966,-0.269,0.248,0.94
57508,1755602761893,15.83,14.78,1.88,783,879,765,368,812,50.0,-0.269,0.248,0.941
57538,1755602761923,15.83,14.8,1.9,787,871,775,414,816,33.333333333333336,-0.268,0.248,0.94
57567,1755602761953,15.83,14.79,1.89,780,880,778,368,816,34.48275862068966,-0.268,0.249,0.938
57597,1755602761982,15.81,14.79,1.89,784,882,776,342,816,33.333333333333336,-0.267,0.249,0.939
57626,1755602762011,15.83,14.78,1.87,781,876,772,364,815,34.48275862068966,-0.267,0.249,0.94
57655,1755602762040,15.8,14.81,1.87,789,882,775,422,816,34.48275862068966,-0.268,0.249,0.94
57685,1755602762070,15.8,14.81,1.86,784,880,776,396,819,33.333333333333336,-0.268,0.249,0.939
57715,1755602762100,15.8,14.8,1.86,781,885,775,337,816,33.333333333333336,-0.268,0.249,0.938
57744,1755602762129,15.79,14.78,1.85,790,875,771,349,810,34.48275862068966,-0.267,0.249,0.939
57774,1755602762159,15.78,14.79,1.84,787,879,778,420,816,33.333333333333336,-0.267,0.25,0.94
57803,1755602762188,15.77,14.8,1.83,787,880,768,402,817,34.48275862068966,-0.268,0.248,0.94
57832,1755602762217,15.76,14.82,1.84,786,880,778,348,817,34.48275862068966,-0.269,0.248,0.941
57862,1755602762247,15.77,14.82,1.84,785,882,770,348,813,33.333333333333336,-0.268,0.248,0.94
57891,1755602762276,15.77,14.82,1.84,780,882,770,398,817,34.48275862068966,-0.267,0.249,0.939
57921,1755602762306,15.77,14.81,1.83,781,881,770,419,818,33.333333333333336,-0.266,0.25,0.94
57950,1755602762335,15.74,14.82,1.82,784,880,776,379,811,34.48275862068966,-0.265,0.25,0.94
57980,1755602762365,15.74,14.83,1.81,788,882,773,339,811,33.333333333333336,-0.267,0.249,0.941
58000,1755602762385,15.73,14.84,1.8,788,873,767,383,816,50.0,-0.267,0.249,0.94
58029,1755602762414,15.73,14.84,1.81,785,888,775,346,808,34.48275862068966,-0.268,0.249,0.94
58058,1755602762444,15.7,14.86,1.81,786,877,768,395,818,34.48275862068966,-0.267,0.25,0.94
58088,1755602762473,15.73,14.82,1.79,786,881,777,403,818,33.333333333333336,-0.267,0.25,0.94
58117,1755602762502,15.73,14.82,1.79,782,881,769,365,815,34.48275862068966,-0.268,0.249,0.941
58147,1755602762532,15.72,14.84,1.8,784,876,773,327,818,33.333333333333336,-0.267,0.249,0.941
58177,1755602762562,15.7,14.85,1.8,781,881,770,358,812,33.333333333333336,-0.266,0.249,0.94
58206,1755602762591,15.72,14.82,1.79,787,881,777,433,813,34.48275862068966,-0.265,0.249,0.939
58265,1755602762650,15.72,14.83,1.79,790,873,777,336,816,34.48275862068966,-0.267,0.25,0.941
58294,1755602762679,15.71,14.84,1.8,786,880,777,350,816,34.48275862068966,-0.266,0.25,0.94
58324,1755602762709,15.73,14.84,1.78,789,877,764,438,816,33.333333333333336,-0.266,0.251,0.94
58353,1755602762738,15.71,14.83,1.77,779,884,772,423,819,34.48275862068966,-0.265,0.25,0.94
58383,1755602762768,15.7,14.82,1.76,784,881,773,344,817,33.333333333333336,-0.266,0.249,0.941
58412,1755602762798,15.69,14.84,1.77,788,877,772,346,816,34.48275862068966,-0.268,0.249,0.942
58442,1755602762827,15.69,14.85,1.77,791,879,775,368,811,33.333333333333336,-0.267,0.249,0.941
58471,1755602762856,15.7,14.85,1.76,780,887,770,417,820,34.48275862068966,-0.267,0.25,0.94
58501,1755602762886,15.69,14.84,1.75,787,882,768,383,820,33.333333333333336,-0.267,0.25,0.94
58530,1755602762915,15.7,14.83,1.75,780,879,774,293,816,34.48275862068966,-0.268,0.249,0.942
58560,1755602762945,15.7,14.85,1.77,783,876,768,356,820,33.333333333333336,-0.269,0.249,0.942
58589,1755602762975,15.68,14.88,1.78,784,885,773,421,815,34.48275862068966,-0.266,0.251,0.94
58609,1755602762994,15.68,14.86,1.77,786,871,773,351,814,50.0,-0.264,0.251,0.938
58639,1755602763024,15.68,14.84,1.75,781,877,772,422,816,33.333333333333336,-0.263,0.251,0.939
58668,1755602763054,15.68,14.83,1.75,782,878,776,394,815,34.48275862068966,-0.266,0.25,0.941
58698,1755602763084,15.69,14.85,1.75,785,880,776,337,812,33.333333333333336,-0.267,0.25,0.941
58728,1755602763113,15.7,14.86,1.76,785,881,774,328,812,33.333333333333336,-0.267,0.25,0.94
58757,1755602763142,15.7,14.85,1.78,780,871,777,416,817,34.48275862068966,-0.267,0.251,0.939
58787,1755602763172,15.72,14.83,1.77,789,873,775,417,816,33.333333333333336,-0.265,0.251,0.94
58816,1755602763201,15.71,14.83,1.77,786,883,779,325,817,34.48275862068966,-0.264,0.251,0.941
58845,1755602763230,15.71,14.85,1.76,784,877,780,327,814,34.48275862068966,-0.264,0.251,0.941
58875,1755602763260,15.71,14.86,1.75,784,882,771,399,810,33.333333333333336,-0.265,0.251,0.94
58904,1755602763289,15.7,14.87,1.74,792,879,772,415,815,34.48275862068966,-0.266,0.251,0.94
58934,1755602763319,15.72,14.86,1.73,787,877,780,363,805,33.333333333333336,-0.267,0.251,0.94
58963,1755602763348,15.72,14.84,1.72,784,875,773,321,815,34.48275862068966,-0.267,0.251,0.94
58992,1755602763377,15.71,14.85,1.72,783,878,771,375,812,34.48275862068966,-0.265,0.252,0.94
59022,1755602763407,15.7,14.85,1.71,785,878,768,413,819,33.333333333333336,-0.264,0.251,0.94
59051,1755602763436,15.69,14.85,1.69,786,876,780,377,815,34.48275862068966,-0.265,0.25,0.94
59080,1755602763465,15.71,14.83,1.68,785,885,770,337,815,34.48275862068966,-0.267,0.25,0.94
59110,1755602763495,15.7,14.83,1.68,779,875,770,365,809,33.333333333333336,-0.268,0.25,0.94
59139,1755602763524,15.71,14.82,1.68,787,879,771,419,817,34.48275862068966,-0.266,0.251,0.939
59169,1755602763553,15.71,14.81,1.66,789,873,775,380,814,33.333333333333336,-0.264,0.251,0.939
59198,1755602763583,15.69,14.8,1.65,788,879,768,310,811,34.48275862068966,-0.264,0.251,0.94
59227,1755602763612,15.7,14.79,1.61,790,877,774,332,822,34.48275862068966,-0.264,0.251,0.941
59257,1755602763642,15.7,14.8,1.59,781,877,778,421,814,33.333333333333336,-0.267,0.25,0.941
59286,1755602763671,15.71,14.8,1.58,784,883,773,397,817,34.48275862068966,-0.268,0.248,0.941
59316,1755602763701,15.71,14.81,1.58,784,883,778,325,814,33.333333333333336,-0.268,0.249,0.94
59345,1755602763730,15.71,14.8,1.58,782,879,773,326,811,34.48275862068966,-0.268,0.249,0.94
59375,1755602763760,15.68,14.82,1.58,784,879,768,419,810,33.333333333333336,-0.268,0.249,0.941
59404,1755602763789,15.68,14.83,1.57,783,885,777,426,814,34.48275862068966,-0.266,0.249,0.941
59433,1755602763818,15.7,14.82,1.55,784,878,775,366,818,34.48275862068966,-0.266,0.25,0.94
59463,1755602763849,15.68,14.8,1.54,788,884,774,330,812,33.333333333333336,-0.267,0.249,0.94
59483,1755602763868,15.68,14.79,1.53,786,877,776,388,819,50.0,-0.268,0.249,0.94
59512,1755602763897,15.69,14.79,1.54,783,880,775,357,812,34.48275862068966,-0.269,0.249,0.941
59542,1755602763927,15.69,14.81,1.55,791,874,777,408,813,33.333333333333336,-0.267,0.249,0.941
59571,1755602763957,15.69,14.8,1.55,784,882,775,436,811,34.48275862068966,-0.266,0.249,0.94
