timestamp_ms,recv_timestamp_ms,pitch,roll,yaw,flex1,flex2,flex3,flex4,flex5,sampling_hz,accel_x,accel_y,accel_z
24472,1755602728856,13.12,24.38,10.49,779,878,770,369,823,33.333333333333336,-0.22,0.408,0.895
24501,1755602728885,13.09,24.36,10.46,787,880,766,314,816,34.48275862068966,-0.22,0.409,0.894
24530,1755602728915,13.07,24.35,10.43,791,888,776,358,818,34.48275862068966,-0.219,0.409,0.896
24560,1755602728944,13.06,24.35,10.4,785,885,770,420,820,33.333333333333336,-0.218,0.41,0.897
24590,1755602728975,13.08,24.36,10.37,788,888,773,394,822,33.333333333333336,-0.218,0.409,0.899
24610,1755602728994,13.07,24.37,10.37,781,885,775,388,822,50.0,-0.218,0.409,0.898
24639,1755602729023,13.07,24.34,10.36,784,880,774,387,818,34.48275862068966,-0.216,0.408,0.895
24668,1755602729053,13.09,24.32,10.33,785,872,769,322,818,34.48275862068966,-0.216,0.407,0.897
24698,1755602729082,13.05,24.34,10.35,784,879,773,351,822,33.333333333333336,-0.218,0.407,0.9
24727,1755602729111,13.06,24.37,10.36,781,876,774,432,813,34.48275862068966,-0.217,0.408,0.899
24757,1755602729141,13.07,24.38,10.37,784,874,769,371,821,33.333333333333336,-0.217,0.407,0.896
24815,1755602729200,13.04,24.37,10.39,785,884,778,314,823,34.48275862068966,-0.216,0.409,0.895
24845,1755602729230,13.06,24.35,10.39,781,879,768,406,820,33.333333333333336,-0.216,0.41,0.895
24875,1755602729259,13.06,24.33,10.39,790,885,774,421,819,33.333333333333336,-0.215,0.409,0.894
24904,1755602729288,13.08,24.27,10.39,784,886,774,363,820,34.48275862068966,-0.216,0.409,0.894
24934,1755602729318,13.06,24.22,10.41,783,882,776,289,814,33.333333333333336,-0.215,0.408,0.897
24992,1755602729377,13.09,24.25,10.4,786,880,774,428,819,34.48275862068966,-0.215,0.408,0.898
25022,1755602729406,13.11,24.27,10.41,786,886,769,383,813,33.333333333333336,-0.217,0.407,0.896
25051,1755602729435,13.12,24.26,10.42,783,889,777,317,819,34.48275862068966,-0.217,0.407,0.895
25080,1755602729465,13.12,24.23,10.41,778,882,774,363,816,34.48275862068966,-0.217,0.407,0.894
25110,1755602729494,13.13,24.23,10.41,785,888,774,444,817,33.333333333333336,-0.218,0.407,0.896
25139,1755602729524,13.12,24.24,10.41,786,880,770,414,816,34.48275862068966,-0.218,0.407,0.898
25169,1755602729553,13.13,24.26,10.41,785,875,772,337,819,33.333333333333336,-0.216,0.407,0.897
25198,1755602729582,13.16,24.23,10.37,780,883,776,304,820,34.48275862068966,-0.214,0.406,0.893
25227,1755602729612,13.13,24.2,10.33,785,889,772,399,823,34.48275862068966,-0.215,0.406,0.892
25257,1755602729641,13.08,24.17,10.3,787,880,773,356,817,33.333333333333336,-0.217,0.407,0.894
25316,1755602729700,13.0,24.19,10.3,788,875,771,318,821,33.333333333333336,-0.22,0.405,0.896
25345,1755602729729,13.0,24.19,10.31,782,885,768,386,820,34.48275862068966,-0.219,0.404,0.897
25374,1755602729759,12.98,24.21,10.32,786,889,770,410,824,34.48275862068966,-0.218,0.405,0.897
25434,1755602729818,12.97,24.23,10.32,786,879,774,325,816,33.333333333333336,-0.215,0.405,0.897
25463,1755602729847,12.96,24.24,10.33,786,883,772,376,819,34.48275862068966,-0.217,0.404,0.898
25492,1755602729877,12.93,24.27,10.37,784,886,768,413,820,34.48275862068966,-0.217,0.404,0.897
25522,1755602729907,12.95,24.27,10.4,789,884,777,383,817,33.333333333333336,-0.219,0.404,0.896
25552,1755602729936,12.95,24.28,10.45,786,881,765,330,816,33.333333333333336,-0.218,0.406,0.896
25581,1755602729965,12.95,24.27,10.49,789,877,770,347,819,34.48275862068966,-0.215,0.407,0.894
25611,1755602729995,12.94,24.25,10.51,787,882,776,438,817,33.333333333333336,-0.213,0.408,0.893
25640,1755602730025,12.93,24.22,10.53,785,881,777,412,811,34.48275862068966,-0.212,0.408,0.896
25670,1755602730054,12.91,24.23,10.54,781,886,774,331,815,33.333333333333336,-0.212,0.408,0.898
25758,1755602730143,12.87,24.18,10.55,783,883,773,413,815,34.48275862068966,-0.212,0.407,0.894
25788,1755602730172,12.81,24.14,10.56,782,879,773,359,820,33.333333333333336,-0.214,0.406,0.896
25817,1755602730201,12.8,24.16,10.57,788,881,774,332,819,34.48275862068966,-0.214,0.406,0.899
25846,1755602730231,12.81,24.2,10.58,785,882,769,378,814,34.48275862068966,-0.214,0.405,0.899
25876,1755602730261,12.81,24.22,10.6,785,875,771,419,820,33.333333333333336,-0.212,0.406,0.898
25906,1755602730290,12.78,24.21,10.61,785,881,769,396,822,33.333333333333336,-0.21,0.408,0.896
25935,1755602730320,12.79,24.17,10.59,789,882,775,325,821,34.48275862068966,-0.21,0.407,0.896
25965,1755602730350,12.8,24.16,10.58,785,881,776,354,815,33.333333333333336,-0.21,0.407,0.897
25995,1755602730379,12.81,24.13,10.56,778,880,768,435,819,33.333333333333336,-0.211,0.407,0.897
26024,1755602730408,12.82,24.1,10.54,786,882,774,426,821,34.48275862068966,-0.211,0.406,0.897
26054,1755602730438,12.83,24.08,10.51,787,887,770,346,818,33.333333333333336,-0.211,0.405,0.898
26083,1755602730467,12.87,24.06,10.47,791,883,776,331,815,34.48275862068966,-0.213,0.405,0.899
26112,1755602730497,12.91,24.05,10.43,788,886,774,394,816,34.48275862068966,-0.215,0.404,0.899
26142,1755602730526,12.89,24.06,10.41,781,881,778,424,821,33.333333333333336,-0.217,0.404,0.901
26171,1755602730556,12.9,24.08,10.4,786,882,775,377,821,34.48275862068966,-0.217,0.404,0.901
26201,1755602730585,12.89,24.1,10.39,785,878,775,329,819,33.333333333333336,-0.215,0.403,0.899
26230,1755602730614,12.88,24.11,10.39,788,876,777,321,821,34.48275862068966,-0.215,0.403,0.898
26259,1755602730644,12.87,24.1,10.38,786,876,774,403,812,34.48275862068966,-0.216,0.403,0.899
26289,1755602730673,12.89,24.08,10.38,785,885,773,376,823,33.333333333333336,-0.217,0.401,0.9
26318,1755602730703,12.88,24.09,10.4,787,887,772,326,823,34.48275862068966,-0.218,0.402,0.9
26348,1755602730732,12.87,24.11,10.42,788,886,768,357,821,33.333333333333336,-0.216,0.403,0.899
26377,1755602730761,12.88,24.1,10.41,780,882,776,422,811,34.48275862068966,-0.215,0.403,0.898
26436,1755602730820,12.87,24.11,10.42,786,884,777,334,820,34.48275862068966,-0.216,0.402,0.899
26465,1755602730850,12.86,24.13,10.44,783,879,774,337,817,34.48275862068966,-0.216,0.403,0.9
26495,1755602730879,12.85,24.15,10.45,785,884,775,370,820,33.333333333333336,-0.214,0.403,0.898
26524,1755602730908,12.86,24.15,10.46,778,883,765,383,823,34.48275862068966,-0.215,0.404,0.897
26553,1755602730938,12.83,24.13,10.46,786,882,775,331,818,34.48275862068966,-0.214,0.405,0.897
26583,1755602730967,12.82,24.12,10.45,786,878,774,317,823,33.333333333333336,-0.213,0.406,0.897
26612,1755602730997,12.79,24.14,10.44,787,877,774,393,821,34.48275862068966,-0.213,0.406,0.898
26642,1755602731026,12.77,24.16,10.43,787,873,774,426,821,33.333333333333336,-0.212,0.405,0.898
26671,1755602731056,12.75,24.17,10.41,783,879,770,382,814,34.48275862068966,-0.212,0.404,0.899
26701,1755602731085,12.73,24.17,10.39,781,889,773,320,811,33.333333333333336,-0.213,0.404,0.898
26730,1755602731114,12.71,24.19,10.39,780,885,774,358,821,34.48275862068966,-0.213,0.405,0.898
26759,1755602731144,12.72,24.2,10.38,787,885,774,408,820,34.48275862068966,-0.214,0.405,0.899
26789,1755602731173,12.69,24.25,10.39,791,882,777,377,825,33.333333333333336,-0.214,0.404,0.899
26818,1755602731203,12.65,24.29,10.41,789,892,770,315,815,34.48275862068966,-0.214,0.405,0.898
26848,1755602731233,12.64,24.3,10.41,784,885,772,348,824,33.333333333333336,-0.213,0.406,0.897
26868,1755602731252,12.63,24.29,10.41,779,882,768,369,826,50.0,-0.211,0.405,0.896
26897,1755602731282,12.61,24.3,10.4,784,882,772,387,818,34.48275862068966,-0.211,0.407,0.898
26956,1755602731341,12.57,24.36,10.4,789,878,769,405,817,34.48275862068966,-0.21,0.407,0.899
26986,1755602731370,12.58,24.36,10.39,782,887,775,329,819,33.333333333333336,-0.21,0.406,0.897
27015,1755602731400,12.58,24.36,10.41,783,884,777,326,813,34.48275862068966,-0.211,0.407,0.897
27045,1755602731429,12.59,24.37,10.42,787,882,773,414,820,33.333333333333336,-0.211,0.408,0.898
27074,1755602731458,12.6,24.37,10.44,782,886,772,408,817,34.48275862068966,-0.211,0.408,0.9
27104,1755602731488,12.57,24.41,10.46,783,883,772,350,814,33.333333333333336,-0.209,0.408,0.899
27133,1755602731517,12.6,24.41,10.46,782,884,776,334,818,34.48275862068966,-0.208,0.409,0.896
27162,1755602731547,12.59,24.39,10.45,789,883,777,390,813,34.48275862068966,-0.208,0.409,0.894
27192,1755602731577,12.6,24.36,10.44,781,882,772,426,816,33.333333333333336,-0.209,0.41,0.895
27222,1755602731606,12.6,24.32,10.44,788,884,770,377,812,33.333333333333336,-0.21,0.409,0.896
27251,1755602731635,12.64,24.28,10.43,788,884,775,323,819,34.48275862068966,-0.211,0.408,0.898
27281,1755602731665,12.63,24.3,10.45,787,884,776,346,821,33.333333333333336,-0.21,0.408,0.899
27310,1755602731694,12.64,24.33,10.44,782,883,775,429,817,34.48275862068966,-0.208,0.409,0.898
27369,1755602731754,12.63,24.34,10.42,788,880,775,277,810,33.333333333333336,-0.207,0.41,0.895
27399,1755602731783,12.61,24.32,10.39,790,886,775,320,816,33.333333333333336,-0.206,0.41,0.894
27428,1755602731812,12.61,24.29,10.34,784,878,768,404,818,34.48275862068966,-0.208,0.411,0.895
27458,1755602731842,12.59,24.27,10.3,786,882,774,408,816,33.333333333333336,-0.208,0.409,0.896
27487,1755602731872,12.59,24.26,10.26,785,887,770,313,816,34.48275862068966,-0.209,0.408,0.897
27517,1755602731901,12.59,24.26,10.24,786,876,776,304,815,33.333333333333336,-0.212,0.406,0.897
27546,1755602731931,12.57,24.26,10.23,787,884,776,360,816,34.48275862068966,-0.211,0.405,0.896
27576,1755602731960,12.58,24.23,10.2,787,887,768,408,822,33.333333333333336,-0.212,0.406,0.896
27606,1755602731990,12.57,24.22,10.19,789,887,776,382,817,33.333333333333336,-0.213,0.408,0.896
27635,1755602732019,12.57,24.2,10.18,784,885,777,327,821,34.48275862068966,-0.212,0.407,0.895
27664,1755602732049,12.53,24.17,10.18,784,876,781,341,808,34.48275862068966,-0.211,0.406,0.896
27694,1755602732079,12.52,24.12,10.16,785,881,771,412,811,33.333333333333336,-0.209,0.406,0.896
27723,1755602732108,12.49,24.06,10.14,784,879,773,353,825,34.48275862068966,-0.21,0.406,0.897
27753,1755602732137,12.48,24.03,10.12,789,881,774,323,811,33.333333333333336,-0.21,0.404,0.898
27783,1755602732167,12.49,23.98,10.09,787,884,770,337,818,33.333333333333336,-0.211,0.403,0.899
27812,1755602732196,12.53,23.94,10.05,784,880,771,405,815,34.48275862068966,-0.213,0.402,0.9
27841,1755602732226,12.54,23.92,10.04,784,884,770,426,821,34.48275862068966,-0.214,0.401,0.901
27871,1755602732255,12.55,23.89,10.04,788,885,779,362,808,33.333333333333336,-0.214,0.4,0.9
27900,1755602732284,12.58,23.85,10.03,783,882,773,341,817,34.48275862068966,-0.213,0.399,0.9
27929,1755602732314,12.6,23.82,10.02,778,893,775,387,821,34.48275862068966,-0.213,0.399,0.902
27959,1755602732343,12.64,23.77,9.99,785,883,771,419,815,33.333333333333336,-0.212,0.398,0.901
27988,1755602732373,12.67,23.74,9.99,784,874,778,382,821,34.48275862068966,-0.213,0.397,0.901
28048,1755602732432,12.69,23.67,9.99,781,883,777,359,816,33.333333333333336,-0.213,0.396,0.902
28077,1755602732461,12.71,23.63,9.99,788,883,775,427,817,34.48275862068966,-0.213,0.396,0.903
28106,1755602732491,12.7,23.6,9.99,791,882,776,409,818,34.48275862068966,-0.213,0.396,0.903
28136,1755602732520,12.7,23.57,9.97,785,886,773,339,819,33.333333333333336,-0.214,0.395,0.903
28165,1755602732550,12.7,23.56,9.96,782,877,775,335,810,34.48275862068966,-0.216,0.393,0.904
28195,1755602732579,12.69,23.56,9.99,791,888,777,401,818,33.333333333333336,-0.218,0.392,0.905
28224,1755602732609,12.69,23.58,10.02,785,880,773,417,818,34.48275862068966,-0.218,0.391,0.905
28254,1755602732638,12.7,23.58,10.05,785,889,776,362,820,33.333333333333336,-0.216,0.393,0.903
28283,1755602732668,12.73,23.55,10.06,787,878,774,340,821,34.48275862068966,-0.216,0.393,0.902
28313,1755602732697,12.71,23.54,10.1,781,881,774,366,819,33.333333333333336,-0.215,0.393,0.903
28342,1755602732727,12.71,23.52,10.13,787,880,777,414,812,34.48275862068966,-0.214,0.394,0.903
28372,1755602732756,12.7,23.51,10.13,783,887,771,372,815,33.333333333333336,-0.213,0.394,0.903
28401,1755602732786,12.7,23.51,10.13,783,883,771,325,816,34.48275862068966,-0.213,0.394,0.904
28460,1755602732845,12.69,23.55,10.16,786,884,779,418,825,34.48275862068966,-0.213,0.393,0.906
28490,1755602732874,12.71,23.57,10.16,789,886,769,395,822,33.333333333333336,-0.213,0.393,0.904
28519,1755602732903,12.7,23.55,10.18,788,881,777,308,821,34.48275862068966,-0.213,0.392,0.903
28549,1755602732933,12.7,23.54,10.21,788,884,773,347,817,33.333333333333336,-0.214,0.393,0.903
28578,1755602732962,12.7,23.52,10.24,785,886,775,423,811,34.48275862068966,-0.214,0.394,0.904
28637,1755602733021,12.71,23.52,10.29,783,887,778,357,818,33.333333333333336,-0.213,0.394,0.903
28666,1755602733050,12.72,23.48,10.31,783,886,773,332,816,34.48275862068966,-0.212,0.394,0.902
28695,1755602733080,12.73,23.44,10.31,783,875,774,399,818,34.48275862068966,-0.212,0.394,0.902
28725,1755602733110,12.74,23.44,10.31,780,882,767,427,813,33.333333333333336,-0.211,0.394,0.905
28755,1755602733140,12.74,23.47,10.34,785,876,774,372,816,33.333333333333336,-0.212,0.393,0.907
28775,1755602733160,12.73,23.49,10.36,783,883,771,411,820,50.0,-0.212,0.394,0.907
28834,1755602733218,12.75,23.48,10.38,788,888,779,326,813,34.48275862068966,-0.211,0.393,0.903
28863,1755602733248,12.75,23.48,10.39,787,882,775,374,818,34.48275862068966,-0.212,0.394,0.905
28893,1755602733278,12.74,23.48,10.4,789,886,775,426,817,33.333333333333336,-0.212,0.394,0.906
28923,1755602733307,12.76,23.49,10.41,780,879,773,391,817,33.333333333333336,-0.211,0.393,0.905
28952,1755602733337,12.75,23.49,10.42,789,877,773,336,814,34.48275862068966,-0.211,0.394,0.905
29011,1755602733395,12.75,23.51,10.42,782,881,777,412,822,34.48275862068966,-0.211,0.396,0.905
29041,1755602733425,12.75,23.53,10.41,788,883,772,405,820,33.333333333333336,-0.211,0.396,0.905
29070,1755602733455,12.72,23.54,10.42,786,877,775,333,811,34.48275862068966,-0.21,0.396,0.904
29100,1755602733484,12.72,23.53,10.41,783,890,775,323,819,33.333333333333336,-0.209,0.396,0.904
29129,1755602733513,12.72,23.52,10.39,785,889,777,388,820,34.48275862068966,-0.211,0.395,0.905
29158,1755602733543,12.7,23.54,10.4,786,887,783,378,815,34.48275862068966,-0.211,0.396,0.906
29188,1755602733572,12.73,23.54,10.38,781,887,775,346,813,33.333333333333336,-0.211,0.396,0.906
29217,1755602733601,12.74,23.55,10.38,789,890,775,322,814,34.48275862068966,-0.212,0.395,0.905
29246,1755602733630,12.74,23.53,10.38,786,877,772,382,815,34.48275862068966,-0.211,0.395,0.904
29276,1755602733660,12.73,23.51,10.39,789,877,777,431,821,33.333333333333336,-0.212,0.394,0.904
29305,1755602733689,12.73,23.51,10.39,781,884,769,392,822,34.48275862068966,-0.211,0.395,0.905
29334,1755602733719,12.73,23.51,10.39,788,883,773,331,826,34.48275862068966,-0.212,0.395,0.905
29364,1755602733749,12.72,23.52,10.4,785,884,776,354,823,33.333333333333336,-0.211,0.395,0.904
29393,1755602733778,12.72,23.5,10.39,788,878,771,420,816,34.48275862068966,-0.209,0.396,0.903
29452,1755602733836,12.71,23.44,10.36,781,882,774,326,821,34.48275862068966,-0.21,0.396,0.904
29481,1755602733866,12.71,23.41,10.33,784,881,774,339,820,34.48275862068966,-0.211,0.394,0.904
29511,1755602733895,12.7,23.39,10.32,788,887,770,409,823,33.333333333333336,-0.212,0.394,0.904
29540,1755602733925,12.69,23.37,10.31,785,877,773,410,818,34.48275862068966,-0.213,0.393,0.906
29570,1755602733954,12.7,23.36,10.3,786,882,776,342,821,33.333333333333336,-0.213,0.392,0.907
29599,1755602733984,12.69,23.37,10.3,787,877,772,351,819,34.48275862068966,-0.213,0.392,0.906
29629,1755602734013,12.69,23.37,10.29,785,881,774,420,820,33.333333333333336,-0.212,0.392,0.904
29658,1755602734042,12.7,23.34,10.26,791,878,771,417,818,34.48275862068966,-0.212,0.393,0.904
29687,1755602734072,12.7,23.33,10.24,780,882,773,314,822,34.48275862068966,-0.212,0.393,0.904
29717,1755602734101,12.69,23.32,10.22,788,883,776,334,809,33.333333333333336,-0.212,0.393,0.904
29746,1755602734131,12.68,23.3,10.21,785,883,775,368,819,34.48275862068966,-0.212,0.392,0.904
29776,1755602734160,12.67,23.27,10.19,786,886,778,404,816,33.333333333333336,-0.212,0.392,0.903
29805,1755602734189,12.67,23.23,10.18,786,877,772,366,818,34.48275862068966,-0.213,0.39,0.904
29834,1755602734219,12.66,23.22,10.18,786,881,767,304,815,34.48275862068966,-0.214,0.39,0.906
29864,1755602734248,12.68,23.22,10.17,782,884,778,344,820,33.333333333333336,-0.214,0.39,0.906
29893,1755602734278,12.67,23.21,10.18,785,880,775,408,815,34.48275862068966,-0.215,0.389,0.906
29923,1755602734307,12.68,23.2,10.17,786,882,772,391,816,33.333333333333336,-0.214,0.389,0.905
29952,1755602734336,12.68,23.17,10.18,785,881,775,315,809,34.48275862068966,-0.214,0.39,0.906
29981,1755602734366,12.66,23.16,10.19,784,879,773,334,818,34.48275862068966,-0.213,0.389,0.906
30011,1755602734395,12.68,23.13,10.16,782,882,775,427,815,33.333333333333336,-0.212,0.388,0.906
30040,1755602734425,12.68,23.11,10.16,785,884,771,417,815,34.48275862068966,-0.213,0.387,0.906
30070,1755602734454,12.68,23.12,10.15,787,870,776,304,819,33.333333333333336,-0.213,0.385,0.906
30099,1755602734483,12.7,23.1,10.16,779,882,768,313,813,34.48275862068966,-0.214,0.386,0.907
30128,1755602734513,12.68,23.11,10.19,786,882,775,389,820,34.48275862068966,-0.213,0.386,0.906
30158,1755602734542,12.69,23.09,10.17,786,882,772,410,818,33.333333333333336,-0.212,0.387,0.905
30187,1755602734572,12.68,23.08,10.17,782,878,772,357,819,34.48275862068966,-0.212,0.387,0.905
30217,1755602734601,12.67,23.06,10.16,782,886,773,332,806,33.333333333333336,-0.211,0.387,0.906
30246,1755602734631,12.68,23.05,10.14,785,885,774,373,819,34.48275862068966,-0.212,0.387,0.907
30276,1755602734660,12.7,23.06,10.12,790,888,765,431,814,33.333333333333336,-0.213,0.387,0.907
30305,1755602734690,12.69,23.05,10.12,785,880,775,377,816,34.48275862068966,-0.214,0.386,0.906
30335,1755602734720,12.69,23.04,10.12,783,877,774,333,821,33.333333333333336,-0.215,0.387,0.907
30365,1755602734749,12.69,23.03,10.13,791,888,775,342,816,33.333333333333336,-0.213,0.386,0.907
30423,1755602734808,12.67,23.06,10.13,787,886,768,410,819,34.48275862068966,-0.212,0.387,0.906
30453,1755602734837,12.69,23.05,10.11,788,889,777,321,811,33.333333333333336,-0.213,0.387,0.906
30482,1755602734867,12.7,23.06,10.11,788,878,773,347,815,34.48275862068966,-0.214,0.387,0.907
30512,1755602734896,12.68,23.06,10.11,784,884,775,413,816,33.333333333333336,-0.213,0.388,0.906
30541,1755602734925,12.68,23.07,10.1,784,880,779,419,818,34.48275862068966,-0.213,0.388,0.906
30570,1755602734955,12.69,23.06,10.1,785,879,776,361,812,34.48275862068966,-0.213,0.387,0.906
30600,1755602734985,12.69,23.04,10.1,786,885,773,322,814,33.333333333333336,-0.213,0.387,0.905
30630,1755602735014,12.69,23.05,10.1,787,881,779,371,818,33.333333333333336,-0.214,0.387,0.907
30659,1755602735044,12.7,23.07,10.09,783,886,771,418,820,34.48275862068966,-0.214,0.388,0.908
30689,1755602735073,12.71,23.09,10.09,787,884,771,383,821,33.333333333333336,-0.213,0.388,0.907
30718,1755602735102,12.74,23.07,10.08,783,882,775,325,814,34.48275862068966,-0.214,0.389,0.905
30747,1755602735132,12.72,23.08,10.07,786,880,770,337,816,34.48275862068966,-0.213,0.388,0.904
30777,1755602735161,12.72,23.02,10.06,783,882,773,419,818,33.333333333333336,-0.214,0.387,0.906
30806,1755602735191,12.7,23.05,10.08,783,883,773,409,820,34.48275862068966,-0.216,0.386,0.908
30836,1755602735220,12.71,23.08,10.09,788,893,772,325,823,33.333333333333336,-0.215,0.386,0.908
30865,1755602735250,12.72,23.1,10.09,780,881,774,329,816,34.48275862068966,-0.214,0.387,0.905
30894,1755602735279,12.72,23.08,10.08,787,881,775,411,819,34.48275862068966,-0.213,0.388,0.904
30924,1755602735308,12.71,23.06,10.07,785,878,778,415,817,33.333333333333336,-0.212,0.388,0.904
30953,1755602735338,12.71,23.05,10.05,787,873,771,335,818,34.48275862068966,-0.213,0.388,0.905
30983,1755602735367,12.72,23.04,10.03,780,879,770,346,816,33.333333333333336,-0.213,0.388,0.906
31012,1755602735396,12.71,23.04,10.03,784,884,780,393,816,34.48275862068966,-0.214,0.387,0.906
31041,1755602735426,12.7,23.03,10.03,784,880,776,408,816,34.48275862068966,-0.214,0.387,0.905
31071,1755602735455,12.71,23.03,10.01,785,878,777,374,812,33.333333333333336,-0.214,0.387,0.905
31100,1755602735485,12.68,23.04,10.0,788,877,770,321,812,34.48275862068966,-0.214,0.387,0.905
31130,1755602735514,12.68,23.02,9.99,788,890,775,370,815,33.333333333333336,-0.213,0.387,0.905
31159,1755602735544,12.7,23.0,9.97,786,882,769,439,817,34.48275862068966,-0.215,0.386,0.906
31189,1755602735573,12.69,23.02,9.97,788,875,772,393,820,33.333333333333336,-0.214,0.386,0.905
31218,1755602735602,12.69,23.0,9.96,782,880,775,320,811,34.48275862068966,-0.214,0.386,0.905
31247,1755602735632,12.66,22.98,9.96,787,883,776,349,812,34.48275862068966,-0.215,0.385,0.905
31277,1755602735661,12.66,22.97,9.96,785,880,776,420,819,33.333333333333336,-0.214,0.385,0.905
31306,1755602735691,12.67,22.96,9.95,783,874,776,405,810,34.48275862068966,-0.214,0.384,0.905
31366,1755602735750,12.65,22.95,9.95,783,878,774,345,812,33.333333333333336,-0.214,0.385,0.906
31395,1755602735780,12.65,22.93,9.93,784,880,782,415,811,34.48275862068966,-0.214,0.384,0.907
31425,1755602735809,12.64,22.96,9.92,784,877,779,419,822,33.333333333333336,-0.214,0.385,0.907
31454,1755602735839,12.66,22.95,9.9,785,883,774,356,820,34.48275862068966,-0.214,0.385,0.907
31484,1755602735868,12.66,22.96,9.88,788,883,774,326,818,33.333333333333336,-0.215,0.384,0.906
31513,1755602735897,12.66,22.95,9.88,785,887,771,377,817,34.48275862068966,-0.216,0.383,0.906
31542,1755602735927,12.66,22.93,9.89,787,882,777,425,819,34.48275862068966,-0.218,0.382,0.906
31572,1755602735956,12.67,22.93,9.91,785,879,768,373,816,33.333333333333336,-0.218,0.382,0.907
31601,1755602735985,12.7,22.92,9.93,784,883,776,331,824,34.48275862068966,-0.217,0.383,0.908
31660,1755602736044,12.72,22.91,9.94,787,879,773,426,816,33.333333333333336,-0.213,0.384,0.905
31689,1755602736074,12.71,22.88,9.92,789,881,774,405,820,34.48275862068966,-0.213,0.384,0.907
31719,1755602736103,12.74,22.87,9.9,785,879,774,323,814,33.333333333333336,-0.215,0.383,0.908
31748,1755602736133,12.75,22.88,9.9,784,884,769,303,818,34.48275862068966,-0.217,0.383,0.907
31778,1755602736162,12.73,22.86,9.91,788,871,775,391,813,33.333333333333336,-0.217,0.382,0.905
31807,1755602736191,12.71,22.85,9.92,788,877,773,402,820,34.48275862068966,-0.217,0.382,0.906
31836,1755602736221,12.7,22.85,9.94,782,886,775,323,813,34.48275862068966,-0.217,0.382,0.908
31895,1755602736280,12.68,22.92,9.96,786,886,770,394,815,34.48275862068966,-0.214,0.382,0.907
31925,1755602736309,12.67,22.91,9.97,785,882,776,418,818,33.333333333333336,-0.212,0.385,0.906
31954,1755602736339,12.69,22.88,9.95,785,888,777,370,824,34.48275862068966,-0.212,0.385,0.906
31984,1755602736368,12.67,22.88,9.94,789,879,773,332,816,33.333333333333336,-0.212,0.384,0.908
32013,1755602736398,12.69,22.88,9.93,785,882,768,378,818,34.48275862068966,-0.212,0.385,0.908
32043,1755602736427,12.68,22.88,9.92,786,876,771,416,818,33.333333333333336,-0.213,0.385,0.906
32072,1755602736457,12.68,22.84,9.89,779,884,766,382,819,34.48275862068966,-0.213,0.383,0.906
32102,1755602736486,12.69,22.82,9.88,783,880,770,323,818,33.333333333333336,-0.214,0.383,0.909
32131,1755602736515,12.69,22.82,9.88,785,880,774,331,814,34.48275862068966,-0.215,0.382,0.91
32160,1755602736545,12.68,22.86,9.89,786,873,776,419,815,34.48275862068966,-0.215,0.382,0.909
32190,1755602736574,12.67,22.85,9.89,785,886,772,398,818,33.333333333333336,-0.212,0.381,0.907
32219,1755602736604,12.64,22.82,9.87,784,886,776,322,812,34.48275862068966,-0.212,0.382,0.908
32249,1755602736633,12.63,22.84,9.88,780,884,776,341,819,33.333333333333336,-0.213,0.384,0.909
32278,1755602736663,12.66,22.83,9.86,777,885,773,397,820,34.48275862068966,-0.214,0.383,0.909
32308,1755602736692,12.65,22.83,9.87,789,881,774,409,819,33.333333333333336,-0.215,0.381,0.908
32337,1755602736722,12.67,22.8,9.86,788,882,772,353,807,34.48275862068966,-0.216,0.381,0.908
32367,1755602736751,12.68,22.8,9.88,788,889,773,322,820,33.333333333333336,-0.217,0.381,0.91
32396,1755602736781,12.68,22.81,9.89,786,883,770,369,820,34.48275862068966,-0.216,0.381,0.91
32426,1755602736810,12.67,22.81,9.9,787,876,773,413,813,33.333333333333336,-0.214,0.381,0.909
32455,1755602736840,12.65,22.82,9.89,788,881,777,374,821,34.48275862068966,-0.213,0.381,0.908
32485,1755602736869,12.65,22.81,9.89,780,881,773,323,807,33.333333333333336,-0.213,0.381,0.908
32514,1755602736898,12.64,22.77,9.88,789,876,778,347,822,34.48275862068966,-0.214,0.38,0.91
32543,1755602736929,12.61,22.8,9.88,778,881,774,431,816,34.48275862068966,-0.215,0.38,0.91
32564,1755602736949,12.61,22.79,9.89,786,873,771,328,815,47.61904761904762,-0.214,0.38,0.91
32594,1755602736978,12.6,22.79,9.9,784,889,775,418,814,33.333333333333336,-0.214,0.381,0.909
32623,1755602737008,12.6,22.75,9.91,782,878,780,410,818,34.48275862068966,-0.214,0.382,0.909
32653,1755602737037,12.58,22.72,9.91,790,878,773,332,821,33.333333333333336,-0.214,0.381,0.909
32682,1755602737067,12.55,22.72,9.93,789,884,772,331,812,34.48275862068966,-0.213,0.381,0.91
32712,1755602737096,12.12,22.7,9.93,781,883,774,416,818,33.333333333333336,-0.213,0.381,0.91
32741,1755602737126,12.11,22.7,9.95,784,880,772,432,817,34.48275862068966,-0.213,0.381,0.908
32771,1755602737156,12.11,22.66,9.93,785,870,770,386,815,33.333333333333336,-0.211,0.38,0.908
32800,1755602737185,12.09,22.64,9.92,787,874,771,343,817,34.48275862068966,-0.211,0.38,0.91
32830,1755602737214,12.08,22.64,9.91,791,884,780,375,818,33.333333333333336,-0.211,0.38,0.91
32859,1755602737244,12.11,22.68,9.88,789,883,775,440,820,34.48275862068966,-0.21,0.379,0.909
32888,1755602737273,12.08,22.65,9.86,784,878,780,415,817,34.48275862068966,-0.209,0.377,0.909
32947,1755602737332,12.03,22.63,9.83,786,882,769,355,821,34.48275862068966,-0.21,0.376,0.91
32977,1755602737361,12.03,22.61,9.81,785,882,768,431,824,33.333333333333336,-0.208,0.375,0.91
33006,1755602737391,12.03,22.57,9.79,781,883,766,398,820,34.48275862068966,-0.209,0.375,0.911
33035,1755602737420,12.05,22.56,9.79,784,878,775,333,812,34.48275862068966,-0.209,0.376,0.912
33065,1755602737449,12.06,22.59,9.79,786,882,772,332,811,33.333333333333336,-0.21,0.376,0.911
33094,1755602737479,12.06,22.59,9.79,788,873,771,400,819,34.48275862068966,-0.21,0.375,0.91
33124,1755602737508,12.11,22.48,9.78,787,882,781,420,819,33.333333333333336,-0.21,0.375,0.908
33153,1755602737537,12.12,22.44,9.76,783,881,767,350,820,34.48275862068966,-0.212,0.375,0.91
33182,1755602737567,12.16,22.39,9.75,784,877,773,339,814,34.48275862068966,-0.214,0.375,0.914
33212,1755602737596,12.23,22.41,9.73,786,880,776,412,812,33.333333333333336,-0.216,0.373,0.914
33241,1755602737625,12.27,22.44,9.72,790,886,772,428,815,34.48275862068966,-0.217,0.373,0.913
