timestamp_ms,recv_timestamp_ms,pitch,roll,yaw,flex1,flex2,flex3,flex4,flex5,sampling_hz,accel_x,accel_y,accel_z
33270,1755602738155,12.35,22.41,9.71,787,884,774,371,819,34.48275862068966,-0.218,0.373,0.913
33300,1755602738157,12.4,22.39,9.72,787,881,780,348,818,33.333333333333336,-0.218,0.374,0.914
33329,1755602738159,12.42,22.41,9.76,787,886,775,384,816,34.48275862068966,-0.216,0.375,0.912
33358,1755602738161,12.43,22.4,9.77,787,888,772,431,816,34.48275862068966,-0.212,0.376,0.91
33388,1755602738163,12.44,22.35,9.74,783,883,775,386,815,33.333333333333336,-0.211,0.377,0.909
33447,1755602738167,12.46,22.29,9.68,787,882,769,361,815,34.48275862068966,-0.213,0.374,0.912
33506,1755602738170,12.44,22.22,9.62,785,873,776,403,814,33.333333333333336,-0.213,0.374,0.91
33565,1755602738174,12.43,22.12,9.52,789,887,775,323,821,33.333333333333336,-0.212,0.372,0.913
33594,1755602738176,12.41,22.1,9.49,784,883,772,414,818,34.48275862068966,-0.215,0.371,0.914
33623,1755602738178,12.4,22.07,9.46,786,885,783,410,822,34.48275862068966,-0.217,0.369,0.913
33653,1755602738180,12.39,22.04,9.44,784,881,776,333,813,33.333333333333336,-0.217,0.369,0.913
33682,1755602738182,12.39,22.01,9.41,781,883,779,334,822,34.48275862068966,-0.219,0.368,0.915
33712,1755602738184,12.38,22.02,9.39,780,884,773,397,809,33.333333333333336,-0.219,0.367,0.916
33741,1755602738186,12.4,22.0,9.37,785,881,769,424,814,34.48275862068966,-0.221,0.366,0.915
33771,1755602738188,12.43,21.96,9.35,781,886,777,380,821,33.333333333333336,-0.223,0.364,0.915
33800,1755602738190,12.45,21.94,9.35,787,876,777,325,817,34.48275862068966,-0.225,0.364,0.916
33829,1755602738214,12.48,21.92,9.36,789,882,770,383,812,34.48275862068966,-0.223,0.364,0.918
33859,1755602738244,12.47,21.95,9.38,786,878,774,378,816,33.333333333333336,-0.218,0.365,0.916
33889,1755602738273,12.45,21.93,9.37,786,880,770,392,817,33.333333333333336,-0.215,0.366,0.912
33918,1755602738302,12.44,21.89,9.36,787,870,772,338,815,34.48275862068966,-0.215,0.366,0.912
33947,1755602738332,12.43,21.84,9.35,789,874,775,352,815,34.48275862068966,-0.216,0.365,0.915
34006,1755602738391,12.46,21.91,9.37,786,884,775,411,821,34.48275862068966,-0.214,0.366,0.914
34035,1755602738420,12.44,21.9,9.36,787,882,768,325,816,34.48275862068966,-0.213,0.368,0.912
34065,1755602738449,12.47,21.84,9.33,786,882,773,339,819,33.333333333333336,-0.214,0.367,0.911
34094,1755602738479,12.47,21.77,9.32,786,885,770,397,815,34.48275862068966,-0.216,0.364,0.914
34124,1755602738508,12.48,21.73,9.33,786,889,772,421,809,33.333333333333336,-0.217,0.363,0.916
34153,1755602738538,12.51,21.7,9.34,781,880,766,305,819,34.48275862068966,-0.218,0.364,0.917
34182,1755602738567,12.52,21.68,9.34,783,885,771,325,822,34.48275862068966,-0.217,0.364,0.915
34212,1755602738597,12.54,21.59,9.34,782,881,774,375,816,33.333333333333336,-0.216,0.364,0.913
34242,1755602738626,12.57,21.49,9.31,783,883,772,434,815,33.333333333333336,-0.218,0.362,0.914
34271,1755602738655,12.61,21.45,9.29,788,885,783,376,817,34.48275862068966,-0.221,0.358,0.919
34300,1755602738685,12.64,21.45,9.3,783,884,776,314,815,34.48275862068966,-0.224,0.356,0.922
34329,1755602738714,12.67,21.48,9.32,780,880,781,364,820,34.48275862068966,-0.223,0.357,0.921
34359,1755602738743,12.73,21.5,9.34,785,887,774,433,816,33.333333333333336,-0.222,0.358,0.918
34388,1755602738773,12.75,21.49,9.34,789,887,767,392,821,34.48275862068966,-0.221,0.358,0.916
34417,1755602738802,12.77,21.47,9.35,787,882,774,319,815,34.48275862068966,-0.221,0.358,0.916
34447,1755602738831,12.76,21.46,9.37,793,879,772,362,816,33.333333333333336,-0.221,0.358,0.917
34476,1755602738860,12.75,21.46,9.38,789,882,769,436,817,34.48275862068966,-0.218,0.36,0.917
34505,1755602738890,12.73,21.45,9.37,785,887,770,399,816,34.48275862068966,-0.215,0.361,0.916
34535,1755602738919,12.7,21.42,9.33,788,876,770,308,819,33.333333333333336,-0.214,0.362,0.915
34593,1755602738978,12.69,21.29,9.27,784,877,775,422,814,34.48275862068966,-0.22,0.356,0.921
34623,1755602739007,12.7,21.31,9.26,787,883,770,401,817,33.333333333333336,-0.222,0.356,0.922
34652,1755602739037,12.75,21.34,9.25,778,882,774,319,821,34.48275862068966,-0.223,0.357,0.92
34672,1755602739057,12.77,21.34,9.25,786,886,773,420,818,50.0,-0.223,0.356,0.916
34701,1755602739086,12.82,21.25,9.24,786,880,773,295,816,34.48275862068966,-0.223,0.355,0.912
34731,1755602739116,12.84,21.12,9.24,788,882,766,339,809,33.333333333333336,-0.225,0.356,0.912
34761,1755602739145,12.84,21.06,9.28,786,889,772,395,822,33.333333333333336,-0.228,0.355,0.916
34790,1755602739175,12.83,21.06,9.35,780,878,774,411,817,34.48275862068966,-0.226,0.355,0.922
34819,1755602739204,12.85,21.08,9.39,787,882,775,346,818,34.48275862068966,-0.221,0.355,0.921
34849,1755602739234,12.85,21.07,9.38,785,887,775,323,812,33.333333333333336,-0.217,0.356,0.918
34908,1755602739292,12.84,20.97,9.29,782,888,769,381,822,34.48275862068966,-0.217,0.355,0.921
34937,1755602739322,12.85,20.97,9.23,783,881,776,346,816,34.48275862068966,-0.221,0.353,0.923
34967,1755602739351,12.87,21.0,9.21,785,883,769,311,815,33.333333333333336,-0.223,0.35,0.921
34996,1755602739381,12.91,20.99,9.2,785,876,764,346,816,34.48275862068966,-0.223,0.349,0.92
35026,1755602739410,12.9,20.98,9.21,786,880,778,410,819,33.333333333333336,-0.223,0.349,0.919
35055,1755602739440,12.92,20.96,9.19,788,889,773,391,812,34.48275862068966,-0.221,0.351,0.919
35084,1755602739469,12.89,20.96,9.19,781,887,773,312,816,34.48275862068966,-0.221,0.352,0.919
35114,1755602739498,12.85,20.93,9.16,787,888,765,339,819,33.333333333333336,-0.218,0.353,0.916
35143,1755602739528,12.83,20.87,9.12,787,883,778,419,817,34.48275862068966,-0.218,0.354,0.918
35173,1755602739558,12.82,20.81,9.05,785,887,779,408,809,33.333333333333336,-0.217,0.353,0.921
35202,1755602739587,12.86,20.77,8.98,783,885,774,344,821,34.48275862068966,-0.217,0.35,0.924
35232,1755602739617,12.88,20.74,8.92,785,884,779,323,809,33.333333333333336,-0.219,0.347,0.924
35262,1755602739646,12.9,20.71,8.88,788,877,775,409,810,33.333333333333336,-0.221,0.347,0.923
35291,1755602739676,12.93,20.69,8.86,791,881,776,427,819,34.48275862068966,-0.225,0.346,0.923
35321,1755602739706,12.94,20.67,8.87,787,884,771,393,815,33.333333333333336,-0.226,0.345,0.922
35351,1755602739735,12.96,20.63,8.86,787,872,773,319,822,33.333333333333336,-0.226,0.344,0.922
35380,1755602739765,12.97,20.61,8.85,788,872,775,341,814,34.48275862068966,-0.226,0.345,0.923
35409,1755602739794,12.99,20.62,8.83,783,890,768,430,815,34.48275862068966,-0.226,0.344,0.924
35439,1755602739823,13.0,20.63,8.83,783,878,767,407,822,33.333333333333336,-0.225,0.343,0.925
35468,1755602739853,13.03,20.19,8.82,783,879,766,342,821,34.48275862068966,-0.224,0.343,0.922
35498,1755602739883,13.05,20.18,8.79,783,880,773,348,820,33.333333333333336,-0.223,0.343,0.921
35528,1755602739912,13.08,20.16,8.75,782,885,772,410,812,33.333333333333336,-0.224,0.344,0.921
35557,1755602739942,13.09,20.18,8.72,780,881,776,423,823,34.48275862068966,-0.226,0.344,0.923
35587,1755602739971,13.1,20.19,8.69,782,871,769,361,813,33.333333333333336,-0.224,0.345,0.921
35616,1755602740000,13.14,20.15,8.62,787,880,774,345,821,34.48275862068966,-0.224,0.345,0.917
35645,1755602740030,13.14,20.08,8.55,786,878,768,390,815,34.48275862068966,-0.224,0.344,0.917
35674,1755602740059,13.13,20.1,8.5,780,872,773,422,817,34.48275862068966,-0.226,0.342,0.921
35704,1755602740088,13.12,20.08,8.48,789,888,770,338,816,33.333333333333336,-0.228,0.341,0.923
35733,1755602740118,13.14,20.07,8.46,782,884,775,304,818,34.48275862068966,-0.228,0.34,0.922
35762,1755602740147,13.14,20.06,8.43,784,886,770,362,821,34.48275862068966,-0.229,0.341,0.92
35792,1755602740177,13.12,20.04,8.41,779,878,774,427,818,33.333333333333336,-0.229,0.341,0.92
35822,1755602740207,13.15,20.0,8.36,785,881,782,399,820,33.333333333333336,-0.229,0.34,0.922
35851,1755602740236,13.15,19.99,8.34,787,879,774,337,822,34.48275862068966,-0.229,0.339,0.924
35881,1755602740266,13.13,19.98,8.32,787,885,774,354,820,33.333333333333336,-0.229,0.338,0.923
35911,1755602740295,13.14,19.97,8.3,778,880,774,417,812,33.333333333333336,-0.232,0.336,0.924
35940,1755602740324,13.16,19.97,8.31,780,880,776,418,808,34.48275862068966,-0.235,0.333,0.925
35969,1755602740354,13.19,19.98,8.35,786,883,772,337,817,34.48275862068966,-0.235,0.334,0.923
35999,1755602740383,13.19,20.03,8.37,788,881,770,323,816,33.333333333333336,-0.231,0.337,0.921
36028,1755602740412,13.2,20.0,8.37,782,890,770,389,815,34.48275862068966,-0.228,0.338,0.921
36057,1755602740442,13.21,19.97,8.35,787,883,775,408,813,34.48275862068966,-0.226,0.336,0.924
36087,1755602740471,13.22,19.96,8.34,782,886,774,353,816,33.333333333333336,-0.227,0.334,0.926
36116,1755602740501,13.23,19.97,8.32,781,884,771,335,810,34.48275862068966,-0.229,0.334,0.926
36145,1755602740530,13.26,19.98,8.31,783,871,782,385,818,34.48275862068966,-0.23,0.336,0.926
36175,1755602740560,13.27,20.02,8.3,788,881,767,433,819,33.333333333333336,-0.229,0.339,0.925
36234,1755602740619,13.25,20.04,8.23,790,881,775,317,810,33.333333333333336,-0.227,0.337,0.92
36264,1755602740649,13.26,19.98,8.19,787,873,775,342,815,33.333333333333336,-0.23,0.336,0.921
36284,1755602740669,13.28,19.94,8.17,786,887,773,351,811,50.0,-0.232,0.334,0.924
36313,1755602740698,13.28,19.98,8.18,778,881,770,368,814,34.48275862068966,-0.233,0.333,0.927
36343,1755602740727,13.29,20.02,8.19,787,880,775,427,812,33.333333333333336,-0.23,0.336,0.925
36372,1755602740757,13.31,20.02,8.18,786,873,772,410,816,34.48275862068966,-0.228,0.338,0.921
36402,1755602740787,13.3,19.96,8.15,788,884,777,339,817,33.333333333333336,-0.227,0.337,0.92
36432,1755602740816,13.3,19.9,8.1,786,876,772,333,820,33.333333333333336,-0.229,0.336,0.923
36461,1755602740845,13.31,19.88,8.08,788,883,774,420,816,34.48275862068966,-0.231,0.334,0.926
36490,1755602740874,13.34,19.89,8.08,777,879,773,406,814,34.48275862068966,-0.232,0.334,0.927
36519,1755602740904,13.35,19.91,8.09,784,880,771,350,814,34.48275862068966,-0.232,0.333,0.925
36549,1755602740933,13.35,19.89,8.1,783,879,773,331,814,33.333333333333336,-0.231,0.333,0.921
36578,1755602740963,13.34,19.86,8.1,784,873,776,388,817,34.48275862068966,-0.231,0.334,0.922
36608,1755602740992,13.36,19.84,8.09,787,884,769,419,819,33.333333333333336,-0.233,0.335,0.923
36697,1755602741081,13.38,19.77,8.13,786,887,774,348,808,33.333333333333336,-0.236,0.333,0.923
36726,1755602741111,13.39,19.77,8.16,787,878,775,377,815,34.48275862068966,-0.235,0.332,0.924
36755,1755602741140,13.39,19.79,8.2,781,887,776,384,818,34.48275862068966,-0.233,0.333,0.926
36785,1755602741170,13.37,19.82,8.22,783,882,777,322,819,33.333333333333336,-0.229,0.334,0.924
36815,1755602741199,13.38,19.79,8.21,788,872,776,292,813,33.333333333333336,-0.228,0.334,0.922
36844,1755602741228,13.33,19.77,8.21,780,880,776,399,821,34.48275862068966,-0.229,0.333,0.922
36873,1755602741258,13.33,19.76,8.22,787,878,774,407,826,34.48275862068966,-0.232,0.333,0.925
36903,1755602741287,13.31,19.8,8.25,791,875,777,338,819,33.333333333333336,-0.233,0.332,0.926
36932,1755602741317,13.32,19.84,8.28,784,882,773,333,819,34.48275862068966,-0.233,0.331,0.924
36961,1755602741346,13.29,19.86,8.32,780,885,770,407,818,34.48275862068966,-0.23,0.333,0.923
36991,1755602741375,13.28,19.87,8.36,783,878,770,415,816,33.333333333333336,-0.228,0.335,0.922
37020,1755602741405,13.22,19.9,8.39,784,883,780,367,814,34.48275862068966,-0.224,0.337,0.922
37049,1755602741434,13.19,19.88,8.38,781,885,777,319,816,34.48275862068966,-0.22,0.337,0.921
37079,1755602741463,13.22,19.85,8.35,785,891,774,352,818,33.333333333333336,-0.221,0.335,0.923
37108,1755602741493,13.21,19.86,8.35,782,884,771,407,819,34.48275862068966,-0.224,0.333,0.926
37138,1755602741523,13.2,19.89,8.35,778,875,777,386,821,33.333333333333336,-0.226,0.334,0.925
37168,1755602741552,13.23,19.91,8.36,778,879,776,327,820,33.333333333333336,-0.227,0.335,0.923
37197,1755602741582,13.21,19.89,8.37,785,879,778,341,815,34.48275862068966,-0.224,0.336,0.921
37226,1755602741611,13.19,19.88,8.34,786,884,777,418,813,34.48275862068966,-0.222,0.337,0.922
37285,1755602741670,13.15,19.88,8.33,783,881,773,340,827,34.48275862068966,-0.222,0.333,0.926
37315,1755602741699,13.15,19.9,8.32,790,882,775,334,819,33.333333333333336,-0.221,0.335,0.926
37373,1755602741758,13.12,19.94,8.3,788,883,777,431,821,34.48275862068966,-0.222,0.337,0.923
37403,1755602741788,13.11,19.93,8.29,785,876,776,352,818,33.333333333333336,-0.222,0.337,0.923
37432,1755602741817,13.11,19.92,8.26,787,882,776,351,820,34.48275862068966,-0.222,0.337,0.923
37462,1755602741847,13.1,19.92,8.25,781,881,775,372,818,33.333333333333336,-0.222,0.336,0.924
37491,1755602741876,13.09,19.91,8.24,781,885,772,414,817,34.48275862068966,-0.222,0.336,0.924
37521,1755602741906,13.1,19.89,8.22,789,878,776,370,816,33.333333333333336,-0.222,0.336,0.924
37550,1755602741935,13.1,19.88,8.21,778,890,781,319,815,34.48275862068966,-0.223,0.336,0.924
37580,1755602741965,13.09,19.87,8.21,788,875,772,359,816,33.333333333333336,-0.223,0.335,0.925
37609,1755602741994,13.1,19.86,8.21,778,884,771,430,815,34.48275862068966,-0.222,0.335,0.925
37639,1755602742024,13.11,19.87,8.2,784,893,772,408,815,33.333333333333336,-0.222,0.335,0.925
37668,1755602742053,13.09,19.87,8.2,785,884,778,331,818,34.48275862068966,-0.222,0.336,0.924
37698,1755602742082,13.1,19.86,8.18,787,886,777,325,818,33.333333333333336,-0.221,0.336,0.924
37727,1755602742112,13.12,19.87,8.16,782,885,769,408,813,34.48275862068966,-0.222,0.336,0.925
37756,1755602742141,13.12,19.89,8.15,782,885,772,408,818,34.48275862068966,-0.222,0.336,0.924
37786,1755602742170,13.12,19.89,8.13,782,884,776,356,826,33.333333333333336,-0.222,0.336,0.923
37815,1755602742200,13.12,19.87,8.12,783,888,771,328,818,34.48275862068966,-0.223,0.335,0.922
37844,1755602742229,13.13,19.85,8.11,788,879,773,389,813,34.48275862068966,-0.224,0.334,0.924
37874,1755602742259,13.14,19.84,8.11,786,884,774,426,819,33.333333333333336,-0.225,0.334,0.925
37903,1755602742288,13.15,19.86,8.12,786,893,781,355,817,34.48275862068966,-0.225,0.334,0.925
37932,1755602742317,13.16,19.87,8.13,786,882,778,314,815,34.48275862068966,-0.224,0.334,0.926
37962,1755602742346,13.16,19.88,8.13,785,880,774,378,818,33.333333333333336,-0.223,0.336,0.924
38050,1755602742434,13.16,19.85,8.12,790,887,768,312,821,33.333333333333336,-0.224,0.335,0.926
38079,1755602742464,13.13,19.88,8.14,785,877,778,361,814,34.48275862068966,-0.223,0.335,0.925
38108,1755602742493,13.16,19.89,8.13,786,888,770,425,815,34.48275862068966,-0.223,0.335,0.924
38138,1755602742523,13.15,19.89,8.14,786,882,776,407,816,33.333333333333336,-0.223,0.335,0.924
38168,1755602742552,13.15,19.89,8.14,785,878,776,339,820,33.333333333333336,-0.222,0.336,0.924
38197,1755602742581,13.17,19.89,8.14,787,881,773,353,816,34.48275862068966,-0.222,0.336,0.924
38226,1755602742611,13.14,19.9,8.15,786,887,772,429,815,34.48275862068966,-0.221,0.336,0.923
38256,1755602742640,13.14,19.91,8.14,787,880,775,413,822,33.333333333333336,-0.22,0.337,0.924
38285,1755602742669,13.13,19.9,8.13,784,881,775,315,816,34.48275862068966,-0.22,0.337,0.924
38314,1755602742699,13.12,19.9,8.11,784,884,775,340,822,34.48275862068966,-0.221,0.337,0.924
38344,1755602742728,13.13,19.89,8.09,785,889,778,417,815,33.333333333333336,-0.222,0.336,0.924
38373,1755602742758,13.13,19.88,8.08,789,878,774,424,818,34.48275862068966,-0.223,0.335,0.925
38402,1755602742787,13.11,19.9,8.08,788,885,778,347,813,34.48275862068966,-0.223,0.336,0.925
38432,1755602742817,13.13,19.89,8.07,788,886,772,330,823,33.333333333333336,-0.224,0.336,0.925
38462,1755602742847,13.11,19.9,8.07,788,876,772,388,822,33.333333333333336,-0.223,0.335,0.925
38491,1755602742876,13.14,19.89,8.06,786,883,775,427,822,34.48275862068966,-0.223,0.335,0.925
38521,1755602742905,13.13,19.91,8.06,784,887,782,398,819,33.333333333333336,-0.222,0.337,0.925
38550,1755602742934,13.15,19.91,8.04,783,885,774,337,814,34.48275862068966,-0.221,0.339,0.923
38579,1755602742964,13.15,19.87,8.0,783,884,772,362,816,34.48275862068966,-0.22,0.337,0.923
38609,1755602742993,13.16,19.85,7.96,788,876,772,425,815,33.333333333333336,-0.222,0.336,0.925
38638,1755602743023,13.16,19.86,7.95,788,884,775,380,816,34.48275862068966,-0.223,0.336,0.926
38668,1755602743052,13.17,19.86,7.94,787,880,775,323,823,33.333333333333336,-0.223,0.335,0.926
38697,1755602743081,13.19,19.84,7.93,783,878,773,336,817,34.48275862068966,-0.224,0.335,0.925
38726,1755602743111,13.19,19.82,7.92,786,881,777,388,818,34.48275862068966,-0.224,0.334,0.925
38756,1755602743140,13.18,19.82,7.91,786,881,776,384,819,33.333333333333336,-0.225,0.334,0.925
38785,1755602743170,13.21,19.81,7.89,785,881,775,321,812,34.48275862068966,-0.225,0.332,0.926
38814,1755602743199,13.2,19.84,7.9,784,878,775,323,815,34.48275862068966,-0.225,0.331,0.928
38844,1755602743228,13.23,19.86,7.9,785,883,771,395,815,33.333333333333336,-0.227,0.332,0.928
38873,1755602743257,13.25,19.87,7.9,782,881,766,415,816,34.48275862068966,-0.227,0.333,0.927
38902,1755602743287,13.25,19.89,7.9,780,881,782,360,815,34.48275862068966,-0.225,0.336,0.925
38931,1755602743316,13.27,19.88,7.86,785,886,771,344,817,34.48275862068966,-0.224,0.339,0.923
38961,1755602743345,13.26,19.87,7.82,783,885,772,406,808,33.333333333333336,-0.225,0.338,0.923
38990,1755602743375,13.24,19.88,7.79,779,886,777,412,820,34.48275862068966,-0.225,0.337,0.924
39020,1755602743405,13.27,19.91,7.77,781,884,771,367,813,33.333333333333336,-0.228,0.335,0.926
39050,1755602743435,13.26,19.95,7.79,786,873,775,280,814,33.333333333333336,-0.228,0.334,0.927
39079,1755602743464,13.25,20.0,7.8,788,887,768,344,809,34.48275862068966,-0.225,0.335,0.926
39109,1755602743493,13.26,20.01,7.78,783,881,767,425,819,33.333333333333336,-0.223,0.337,0.923
39138,1755602743523,13.25,19.99,7.76,787,879,770,398,823,34.48275862068966,-0.223,0.338,0.922
39167,1755602743552,13.25,19.97,7.73,786,877,777,328,821,34.48275862068966,-0.224,0.337,0.923
39197,1755602743581,13.26,19.95,7.71,786,875,774,343,817,33.333333333333336,-0.226,0.337,0.925
39255,1755602743640,13.27,19.96,7.25,779,888,770,412,813,34.48275862068966,-0.224,0.337,0.924
39285,1755602743669,13.28,19.91,7.23,786,885,778,338,814,33.333333333333336,-0.224,0.338,0.922
39314,1755602743699,13.28,19.87,7.2,786,875,774,341,810,34.48275862068966,-0.224,0.338,0.923
39344,1755602743728,13.29,19.85,7.17,779,881,776,418,828,33.333333333333336,-0.227,0.336,0.925
39373,1755602743757,13.29,19.84,7.18,783,883,777,406,814,34.48275862068966,-0.228,0.334,0.926
39402,1755602743787,13.31,19.81,7.2,785,872,778,351,815,34.48275862068966,-0.229,0.334,0.926
39432,1755602743817,13.35,19.74,7.17,785,882,777,330,809,33.333333333333336,-0.228,0.335,0.924
39491,1755602743875,13.36,19.74,7.14,782,882,777,406,820,33.333333333333336,-0.226,0.333,0.927
39520,1755602743905,13.38,19.75,7.13,787,884,776,382,818,34.48275862068966,-0.227,0.333,0.926
39549,1755602743934,13.39,19.75,7.12,787,888,780,329,821,34.48275862068966,-0.227,0.333,0.924
39579,1755602743963,13.39,19.73,7.11,781,881,777,365,814,33.333333333333336,-0.227,0.334,0.924
39608,1755602743993,13.39,19.69,7.09,788,883,775,425,808,34.48275862068966,-0.228,0.334,0.925
39638,1755602744023,13.4,19.68,7.08,787,885,782,398,816,33.333333333333336,-0.227,0.334,0.925
39658,1755602744043,13.4,19.68,7.06,785,887,767,405,821,50.0,-0.226,0.334,0.925
39687,1755602744072,13.4,19.67,7.03,785,874,778,385,819,34.48275862068966,-0.227,0.332,0.926
39717,1755602744101,13.39,19.69,7.02,788,883,773,325,823,33.333333333333336,-0.227,0.331,0.928
39746,1755602744131,13.43,19.73,6.99,786,886,768,337,813,34.48275862068966,-0.229,0.33,0.928
39775,1755602744160,13.5,19.81,6.96,784,888,772,428,814,34.48275862068966,-0.235,0.33,0.929
39834,1755602744219,13.79,19.93,7.11,786,884,774,317,817,34.48275862068966,-0.238,0.332,0.923
39864,1755602744248,13.8,19.94,7.11,782,889,778,308,810,33.333333333333336,-0.232,0.335,0.916
39893,1755602744278,13.78,19.89,7.06,783,884,769,404,813,34.48275862068966,-0.227,0.338,0.915
39922,1755602744307,13.74,19.8,6.96,785,885,776,407,816,34.48275862068966,-0.225,0.339,0.918
39952,1755602744336,13.7,19.76,6.87,779,875,774,342,814,33.333333333333336,-0.227,0.339,0.922
39981,1755602744367,13.7,19.77,6.78,786,883,775,323,819,34.48275862068966,-0.232,0.337,0.924
40031,1755602744416,13.74,19.77,6.68,784,883,773,354,816,33.333333333333336,-0.238,0.334,0.92
40090,1755602744475,13.75,19.65,6.64,785,882,770,403,816,33.333333333333336,-0.238,0.334,0.923
40119,1755602744504,13.77,19.65,6.63,784,884,773,363,816,34.48275862068966,-0.236,0.333,0.927
40208,1755602744592,13.81,19.66,6.55,789,872,774,416,817,33.333333333333336,-0.236,0.333,0.923
40237,1755602744622,13.8,19.65,6.52,783,881,769,385,814,34.48275862068966,-0.237,0.334,0.922
40266,1755602744651,13.83,19.61,6.49,786,877,775,327,807,34.48275862068966,-0.238,0.332,0.922
40296,1755602744680,13.82,19.54,6.47,785,885,774,361,821,33.333333333333336,-0.239,0.329,0.922
40325,1755602744710,13.86,19.48,6.44,785,885,772,438,817,34.48275862068966,-0.241,0.329,0.924
40354,1755602744740,13.86,19.47,6.44,787,874,775,400,818,34.48275862068966,-0.241,0.329,0.926
40384,1755602744769,13.9,19.47,6.43,785,880,773,331,804,33.333333333333336,-0.241,0.328,0.925
40414,1755602744799,13.88,19.49,6.43,783,887,774,344,814,33.333333333333336,-0.243,0.328,0.924
40443,1755602744828,13.86,19.49,6.46,783,880,769,416,814,34.48275862068966,-0.246,0.328,0.924
40473,1755602744858,13.88,19.49,6.49,789,890,775,408,818,33.333333333333336,-0.248,0.327,0.925
40502,1755602744887,13.89,19.5,6.54,783,885,768,312,816,34.48275862068966,-0.247,0.325,0.924
40532,1755602744916,13.91,19.49,6.59,789,883,773,311,814,33.333333333333336,-0.243,0.325,0.924
40561,1755602744945,13.92,19.49,6.63,789,884,771,381,814,34.48275862068966,-0.238,0.327,0.925
40620,1755602745005,13.9,19.49,6.62,792,873,772,370,821,33.333333333333336,-0.23,0.331,0.924
40649,1755602745034,13.88,19.46,6.58,784,879,772,332,822,34.48275862068966,-0.23,0.331,0.924
40679,1755602745063,13.85,19.46,6.56,785,881,772,365,814,33.333333333333336,-0.234,0.331,0.925
40737,1755602745122,13.84,19.41,6.52,781,877,773,400,819,34.48275862068966,-0.238,0.328,0.922
40767,1755602745151,13.84,19.33,6.53,788,881,772,320,821,33.333333333333336,-0.238,0.328,0.922
40796,1755602745180,13.83,19.27,6.52,790,878,780,358,815,34.48275862068966,-0.238,0.327,0.924
40825,1755602745210,13.83,19.25,6.53,788,878,778,426,816,34.48275862068966,-0.238,0.326,0.926
40855,1755602745240,13.83,19.24,6.54,777,877,771,390,813,33.333333333333336,-0.237,0.325,0.926
40884,1755602745269,13.39,19.22,6.53,789,884,769,326,815,34.48275862068966,-0.238,0.324,0.926
40914,1755602745298,13.39,19.22,6.54,788,883,777,345,812,33.333333333333336,-0.237,0.325,0.926
40943,1755602745327,13.42,19.2,6.53,782,875,776,418,813,34.48275862068966,-0.238,0.325,0.926
40972,1755602745357,13.43,19.2,6.54,780,885,771,402,818,34.48275862068966,-0.239,0.324,0.926
41002,1755602745386,13.45,19.19,6.54,780,888,773,349,810,33.333333333333336,-0.239,0.323,0.926
41031,1755602745416,13.48,19.17,6.54,780,884,770,337,819,34.48275862068966,-0.239,0.323,0.926
41061,1755602745445,13.48,19.16,6.54,787,883,774,393,814,33.333333333333336,-0.238,0.322,0.928
41090,1755602745475,13.49,19.17,6.54,784,872,772,407,819,34.48275862068966,-0.237,0.323,0.927
41119,1755602745504,13.5,19.17,6.53,782,887,771,339,808,34.48275862068966,-0.236,0.323,0.926
41149,1755602745533,13.52,19.14,6.51,785,879,775,327,819,33.333333333333336,-0.236,0.323,0.924
41178,1755602745563,13.54,19.08,6.5,779,878,776,361,812,34.48275862068966,-0.239,0.323,0.925
41207,1755602745592,13.55,19.04,6.51,785,885,782,403,810,34.48275862068966,-0.242,0.321,0.928
41237,1755602745621,13.55,19.04,6.53,782,880,773,372,814,33.333333333333336,-0.24,0.321,0.929
41266,1755602745651,13.57,19.04,6.54,791,879,775,315,818,34.48275862068966,-0.238,0.321,0.929
41295,1755602745680,13.58,19.03,6.54,784,893,774,355,807,34.48275862068966,-0.237,0.32,0.927
41325,1755602745710,13.59,19.01,6.55,785,883,779,410,822,33.333333333333336,-0.238,0.319,0.928
41354,1755602745739,13.59,19.03,6.56,789,878,774,389,811,34.48275862068966,-0.238,0.32,0.927
41384,1755602745769,13.6,19.05,6.57,783,877,775,325,817,33.333333333333336,-0.237,0.321,0.927
41443,1755602745827,13.62,18.99,6.54,784,891,770,423,821,33.333333333333336,-0.234,0.322,0.926
41472,1755602745857,13.64,18.94,6.51,780,883,775,395,809,34.48275862068966,-0.235,0.321,0.928
41501,1755602745886,13.66,18.94,6.47,783,878,772,340,818,34.48275862068966,-0.237,0.32,0.929
41531,1755602745916,13.64,18.97,6.48,788,882,775,342,816,33.333333333333336,-0.239,0.317,0.928
41560,1755602745945,13.68,18.94,6.48,782,884,770,413,818,34.48275862068966,-0.24,0.316,0.926
41590,1755602745974,13.68,18.92,6.48,789,883,770,419,816,33.333333333333336,-0.24,0.317,0.926
41619,1755602746004,13.7,18.92,6.48,782,873,775,353,816,34.48275862068966,-0.239,0.318,0.929
41648,1755602746033,13.71,18.94,6.48,781,885,776,328,816,34.48275862068966,-0.238,0.317,0.929
41678,1755602746062,13.71,18.96,6.47,790,880,776,399,820,33.333333333333336,-0.236,0.318,0.926
41707,1755602746092,13.72,18.93,6.45,784,878,772,439,824,34.48275862068966,-0.236,0.319,0.925
41736,1755602746121,13.72,18.91,6.44,782,884,775,381,818,34.48275862068966,-0.236,0.319,0.926
41766,1755602746151,13.73,18.88,6.41,789,883,767,323,815,33.333333333333336,-0.237,0.32,0.926
41795,1755602746180,13.73,18.88,6.39,784,870,771,371,815,34.48275862068966,-0.238,0.319,0.926
41825,1755602746209,13.75,18.87,6.38,788,879,779,426,811,33.333333333333336,-0.237,0.318,0.927
41854,1755602746239,13.77,18.86,6.35,787,886,769,409,812,34.48275862068966,-0.236,0.318,0.926
41884,1755602746268,13.79,18.83,6.32,788,891,776,339,813,33.333333333333336,-0.236,0.319,0.926
41913,1755602746298,13.83,18.8,6.28,781,877,772,361,816,34.48275862068966,-0.237,0.317,0.927
41942,1755602746328,13.91,18.76,6.24,782,883,768,430,815,34.48275862068966,-0.238,0.316,0.928
41972,1755602746357,14.0,18.72,6.2,792,887,769,422,813,33.333333333333336,-0.238,0.315,0.928
42001,1755602746386,14.1,18.72,6.13,790,883,774,341,816,34.48275862068966,-0.239,0.316,0.928
42031,1755602746416,14.2,18.7,6.03,787,885,775,327,815,33.333333333333336,-0.24,0.316,0.926
