timestamp_ms,recv_timestamp_ms,pitch,roll,yaw,flex1,flex2,flex3,flex4,flex5,sampling_hz,accel_x,accel_y,accel_z
204017,1755606279743,17.12,64.19,112.88,856,778,875,402,913,33.333333333333336,-0.28,0.86,0.437
204046,1755606279745,17.09,64.08,112.82,852,772,868,369,917,34.48275862068966,-0.281,0.86,0.438
204076,1755606279747,17.1,64.01,112.76,849,774,873,343,909,33.333333333333336,-0.28,0.858,0.44
204106,1755606279749,17.13,63.97,112.72,855,775,869,374,910,33.333333333333336,-0.286,0.86,0.441
204135,1755606279751,17.12,64.01,112.71,854,780,866,430,913,34.48275862068966,-0.287,0.862,0.442
204165,1755606279753,17.15,64.07,112.73,853,771,867,403,908,33.333333333333336,-0.288,0.863,0.441
204224,1755606279758,17.16,64.06,112.69,854,772,864,370,908,34.48275862068966,-0.289,0.856,0.436
204254,1755606279760,17.22,64.03,112.64,851,779,871,418,912,33.333333333333336,-0.293,0.856,0.442
204313,1755606279764,17.27,64.11,112.84,852,776,869,369,912,34.48275862068966,-0.293,0.86,0.441
204343,1755606279766,17.28,64.16,112.87,859,774,865,351,904,33.333333333333336,-0.29,0.861,0.44
204403,1755606279770,17.26,64.32,112.98,852,770,869,414,909,33.333333333333336,-0.284,0.865,0.436
204432,1755606279772,17.24,64.29,112.99,850,774,871,407,910,34.48275862068966,-0.288,0.858,0.435
204462,1755606279774,17.28,64.3,112.97,847,775,872,348,909,33.333333333333336,-0.288,0.854,0.44
204492,1755606279780,17.37,64.42,113.09,855,773,868,334,911,33.333333333333336,-0.292,0.861,0.445
204522,1755606279810,17.47,64.54,113.21,851,775,868,379,905,33.333333333333336,-0.286,0.863,0.44
204552,1755606279839,17.56,64.64,113.27,852,770,869,423,912,33.333333333333336,-0.283,0.863,0.434
204581,1755606279869,17.63,64.71,113.29,852,778,869,407,915,34.48275862068966,-0.285,0.862,0.427
204611,1755606279899,17.66,64.67,113.23,848,779,871,359,905,33.333333333333336,-0.288,0.861,0.428
204641,1755606279928,17.74,64.76,113.28,856,778,872,357,908,33.333333333333336,-0.286,0.864,0.43
204671,1755606279958,17.78,64.76,113.31,855,774,862,419,912,33.333333333333336,-0.284,0.866,0.426
204700,1755606279988,17.82,64.75,113.26,851,777,870,426,908,34.48275862068966,-0.286,0.865,0.425
204730,1755606280017,17.8,64.64,113.23,855,774,876,398,912,33.333333333333336,-0.283,0.857,0.43
204759,1755606280047,17.86,64.61,113.21,854,778,870,364,908,34.48275862068966,-0.287,0.858,0.434
204789,1755606280076,17.82,64.56,113.23,849,770,870,384,910,33.333333333333336,-0.293,0.863,0.435
204819,1755606280106,17.76,64.51,113.24,852,776,868,436,909,33.333333333333336,-0.287,0.862,0.434
204848,1755606280136,17.79,64.59,113.28,852,774,866,410,909,34.48275862068966,-0.29,0.862,0.432
204878,1755606280165,17.78,64.57,113.27,855,772,872,350,909,33.333333333333336,-0.296,0.866,0.43
204908,1755606280195,17.74,64.52,113.24,852,779,868,349,911,33.333333333333336,-0.295,0.865,0.428
204937,1755606280225,17.75,64.6,113.27,853,774,866,407,908,34.48275862068966,-0.297,0.864,0.43
204967,1755606280255,17.71,64.67,113.29,842,773,868,426,909,33.333333333333336,-0.295,0.864,0.43
204997,1755606280284,17.67,64.49,113.25,855,771,869,401,912,33.333333333333336,-0.291,0.86,0.432
205026,1755606280314,17.67,64.54,113.34,852,778,870,358,913,34.48275862068966,-0.289,0.858,0.434
205056,1755606280343,17.68,64.55,113.35,853,777,871,386,909,33.333333333333336,-0.29,0.86,0.432
205086,1755606280373,17.65,64.52,113.35,850,779,866,440,910,33.333333333333336,-0.29,0.859,0.432
205115,1755606280403,17.66,64.5,113.39,861,780,869,415,910,34.48275862068966,-0.291,0.86,0.434
205145,1755606280433,17.65,64.54,113.42,851,771,869,362,910,33.333333333333336,-0.29,0.865,0.434
205175,1755606280462,17.6,64.61,113.45,854,778,866,358,914,33.333333333333336,-0.284,0.86,0.43
205205,1755606280492,17.59,64.61,113.42,851,774,870,413,910,33.333333333333336,-0.284,0.86,0.429
205234,1755606280522,17.54,64.6,113.4,851,769,867,419,908,34.48275862068966,-0.287,0.863,0.43
205264,1755606280551,17.52,64.62,113.44,849,774,864,409,909,33.333333333333336,-0.288,0.859,0.432
205294,1755606280581,17.55,64.68,113.45,861,778,864,360,904,33.333333333333336,-0.289,0.859,0.432
205324,1755606280611,17.52,64.71,113.47,850,777,874,381,910,33.333333333333336,-0.288,0.862,0.432
205353,1755606280641,17.48,64.67,113.46,859,781,871,404,908,34.48275862068966,-0.288,0.863,0.431
205383,1755606280670,17.48,64.67,113.44,851,774,871,426,908,33.333333333333336,-0.291,0.859,0.432
205413,1755606280700,17.49,64.73,113.46,852,778,868,382,909,33.333333333333336,-0.295,0.86,0.434
205442,1755606280730,17.48,64.77,113.5,851,777,866,344,907,34.48275862068966,-0.292,0.859,0.431
205472,1755606280760,17.47,64.83,113.54,849,774,871,363,907,33.333333333333336,-0.291,0.862,0.431
205502,1755606280789,17.44,64.87,113.55,852,773,871,427,909,33.333333333333336,-0.294,0.863,0.43
205532,1755606280819,17.4,64.91,113.6,852,774,867,410,912,33.333333333333336,-0.291,0.863,0.43
205561,1755606280849,17.41,64.94,113.6,860,775,870,375,912,34.48275862068966,-0.29,0.862,0.429
205591,1755606280879,17.4,64.96,113.58,850,777,865,365,910,33.333333333333336,-0.288,0.86,0.428
205621,1755606280908,17.38,65.01,113.56,850,779,872,409,914,33.333333333333336,-0.281,0.863,0.427
205651,1755606280938,17.35,64.94,113.5,854,772,869,420,908,33.333333333333336,-0.285,0.862,0.427
205680,1755606280968,17.33,64.92,113.53,849,781,871,400,911,34.48275862068966,-0.29,0.855,0.432
205710,1755606280997,17.36,64.95,113.6,851,774,869,333,909,33.333333333333336,-0.293,0.863,0.434
205740,1755606281027,17.34,64.93,113.74,850,775,868,367,911,33.333333333333336,-0.29,0.866,0.431
205769,1755606281057,17.33,64.92,113.8,848,774,864,412,905,34.48275862068966,-0.288,0.864,0.427
205799,1755606281087,17.31,64.94,113.81,844,776,869,409,909,33.333333333333336,-0.289,0.866,0.429
205829,1755606281117,17.29,64.92,113.83,849,772,867,359,911,33.333333333333336,-0.29,0.867,0.431
205849,1755606281136,17.27,64.86,113.83,850,780,872,421,908,50.0,-0.287,0.863,0.43
205879,1755606281166,17.25,64.82,113.81,850,775,873,361,903,33.333333333333336,-0.287,0.863,0.43
205908,1755606281196,17.22,64.75,113.81,850,775,866,339,908,34.48275862068966,-0.289,0.86,0.433
205968,1755606281255,17.21,64.73,113.8,850,774,865,411,910,33.333333333333336,-0.285,0.86,0.431
205997,1755606281285,17.22,64.7,113.77,845,771,866,404,913,34.48275862068966,-0.289,0.862,0.43
206027,1755606281314,17.2,64.72,113.78,846,779,870,364,907,33.333333333333336,-0.285,0.861,0.432
206057,1755606281344,17.25,64.72,113.77,850,769,869,358,908,33.333333333333336,-0.284,0.858,0.432
206077,1755606281364,17.26,64.73,113.77,848,775,870,382,910,50.0,-0.287,0.858,0.433
206106,1755606281394,17.26,64.76,113.75,845,769,868,393,907,34.48275862068966,-0.287,0.861,0.433
206136,1755606281423,17.26,64.8,113.78,852,772,865,416,905,33.333333333333336,-0.286,0.859,0.433
206166,1755606281453,17.3,64.84,113.33,854,778,860,421,908,33.333333333333336,-0.288,0.86,0.43
206196,1755606281483,17.32,64.86,113.35,848,775,865,377,910,33.333333333333336,-0.288,0.858,0.434
206225,1755606281513,17.39,64.98,113.44,846,776,867,346,908,34.48275862068966,-0.288,0.857,0.435
206255,1755606281543,17.41,64.98,113.47,851,773,872,370,912,33.333333333333336,-0.29,0.862,0.43
206314,1755606281602,17.36,64.93,113.5,852,775,863,418,913,34.48275862068966,-0.29,0.862,0.43
206344,1755606281632,17.36,64.92,113.52,854,772,867,350,912,33.333333333333336,-0.288,0.864,0.429
206374,1755606281661,17.35,64.84,113.55,851,769,866,360,909,33.333333333333336,-0.29,0.862,0.431
206403,1755606281691,17.32,64.82,113.61,853,777,869,414,909,34.48275862068966,-0.284,0.861,0.431
206433,1755606281721,17.4,64.89,113.73,858,777,862,381,906,33.333333333333336,-0.286,0.859,0.434
206493,1755606281781,17.58,65.16,114.05,854,774,864,355,906,33.333333333333336,-0.293,0.868,0.428
206523,1755606281810,17.52,65.15,114.06,853,777,868,371,912,33.333333333333336,-0.283,0.864,0.423
206553,1755606281840,17.5,65.1,114.0,843,780,866,405,899,33.333333333333336,-0.281,0.863,0.427
206582,1755606281870,17.49,65.07,114.0,849,771,870,428,908,34.48275862068966,-0.282,0.865,0.427
206602,1755606281890,17.49,65.04,114.0,849,771,863,384,913,50.0,-0.286,0.866,0.426
206632,1755606281920,17.47,65.05,114.02,859,774,866,397,911,33.333333333333336,-0.287,0.866,0.428
206662,1755606281949,17.47,65.12,114.05,854,774,873,366,906,33.333333333333336,-0.285,0.866,0.425
206691,1755606281979,17.47,65.12,114.06,849,781,866,298,911,34.48275862068966,-0.283,0.867,0.425
206721,1755606282009,17.49,65.1,114.07,852,778,869,358,907,33.333333333333336,-0.285,0.865,0.427
206751,1755606282038,17.48,65.12,114.11,852,776,863,413,911,33.333333333333336,-0.284,0.865,0.427
206781,1755606282068,17.48,65.09,114.12,851,781,865,396,903,33.333333333333336,-0.28,0.864,0.428
206811,1755606282098,17.52,65.06,114.16,847,775,882,346,910,33.333333333333336,-0.282,0.863,0.427
206840,1755606282128,17.54,65.09,114.17,852,774,868,348,907,34.48275862068966,-0.283,0.867,0.426
206870,1755606282157,17.51,65.09,114.15,847,779,865,408,910,33.333333333333336,-0.282,0.866,0.424
206900,1755606282187,17.5,65.07,114.16,853,773,868,419,908,33.333333333333336,-0.282,0.865,0.426
206929,1755606282217,17.54,65.19,114.27,849,775,873,386,907,34.48275862068966,-0.285,0.864,0.43
206959,1755606282247,17.58,65.34,114.45,847,769,864,346,905,33.333333333333336,-0.283,0.864,0.428
206989,1755606282276,17.56,65.39,114.51,851,771,870,369,908,33.333333333333336,-0.28,0.869,0.423
207019,1755606282306,17.48,65.34,114.54,853,775,871,408,918,33.333333333333336,-0.279,0.866,0.421
207048,1755606282336,17.47,65.34,114.53,844,774,862,416,913,34.48275862068966,-0.281,0.871,0.422
207078,1755606282365,17.42,65.32,114.56,851,775,870,370,905,33.333333333333336,-0.284,0.872,0.425
207108,1755606282395,17.37,65.31,114.56,851,779,869,352,905,33.333333333333336,-0.283,0.869,0.424
207167,1755606282454,17.28,65.2,114.52,849,777,866,426,910,33.333333333333336,-0.279,0.868,0.426
207197,1755606282484,17.28,65.14,114.52,850,776,869,407,910,33.333333333333336,-0.282,0.868,0.427
207226,1755606282514,17.27,65.14,114.53,849,777,866,351,912,34.48275862068966,-0.281,0.869,0.424
207256,1755606282544,17.24,65.08,114.48,855,778,870,356,911,33.333333333333336,-0.278,0.87,0.423
207286,1755606282573,17.23,65.09,114.48,850,776,866,389,906,33.333333333333336,-0.28,0.867,0.427
207316,1755606282603,17.25,65.11,114.5,851,781,872,405,906,33.333333333333336,-0.283,0.864,0.431
207345,1755606282633,17.25,65.15,114.53,852,772,866,370,905,34.48275862068966,-0.279,0.867,0.429
207375,1755606282663,17.22,65.14,114.52,847,768,864,363,910,33.333333333333336,-0.274,0.867,0.425
207405,1755606282693,17.21,65.09,114.49,851,768,864,377,909,33.333333333333336,-0.278,0.865,0.426
207435,1755606282724,17.18,65.08,114.48,847,774,868,408,909,33.333333333333336,-0.281,0.865,0.428
207456,1755606282743,17.18,65.08,114.5,846,775,868,348,909,47.61904761904762,-0.283,0.867,0.43
207486,1755606282773,17.16,65.08,114.54,850,769,859,404,912,33.333333333333336,-0.28,0.867,0.429
207515,1755606282803,17.17,65.1,114.55,841,779,869,410,908,34.48275862068966,-0.281,0.866,0.429
207545,1755606282832,17.15,65.11,114.55,852,779,861,378,915,33.333333333333336,-0.28,0.866,0.43
207575,1755606282862,17.16,65.1,114.56,850,774,865,355,910,33.333333333333336,-0.279,0.867,0.428
207604,1755606282892,17.16,65.1,114.57,850,779,862,374,908,34.48275862068966,-0.28,0.868,0.428
207634,1755606282921,17.17,65.12,114.59,850,769,865,409,916,33.333333333333336,-0.281,0.866,0.427
207664,1755606282951,17.16,65.15,114.59,857,776,869,411,911,33.333333333333336,-0.279,0.866,0.425
207693,1755606282981,17.14,65.14,114.59,852,780,865,360,909,34.48275862068966,-0.279,0.866,0.427
207723,1755606283010,17.15,65.16,114.61,848,772,865,363,910,33.333333333333336,-0.282,0.865,0.429
207753,1755606283040,17.17,65.18,114.66,850,780,868,407,910,33.333333333333336,-0.282,0.866,0.43
207782,1755606283070,17.14,65.17,114.68,847,776,867,422,908,34.48275862068966,-0.279,0.867,0.426
207812,1755606283099,17.12,65.13,114.65,852,774,867,371,911,33.333333333333336,-0.277,0.863,0.427
207901,1755606283188,17.1,65.16,114.74,845,778,868,430,909,33.333333333333336,-0.274,0.865,0.423
207930,1755606283218,17.09,65.1,114.71,849,775,870,415,912,34.48275862068966,-0.275,0.863,0.428
207960,1755606283247,17.12,65.15,114.73,849,779,866,372,906,33.333333333333336,-0.284,0.866,0.432
207990,1755606283277,17.12,65.29,114.84,848,770,882,350,902,33.333333333333336,-0.287,0.866,0.432
208019,1755606283307,17.13,65.48,114.96,848,776,869,388,909,34.48275862068966,-0.28,0.867,0.427
208049,1755606283336,17.13,65.45,114.96,844,775,864,417,910,33.333333333333336,-0.275,0.868,0.423
208079,1755606283366,17.16,65.45,114.96,850,779,867,379,908,33.333333333333336,-0.277,0.866,0.424
208108,1755606283396,17.16,65.47,114.96,851,778,866,338,907,34.48275862068966,-0.281,0.87,0.428
208138,1755606283426,17.13,65.54,115.03,845,777,866,367,911,33.333333333333336,-0.281,0.871,0.426
208168,1755606283455,17.1,65.53,115.06,851,776,868,415,905,33.333333333333336,-0.275,0.868,0.42
208198,1755606283485,17.1,65.48,115.03,848,772,865,401,910,33.333333333333336,-0.276,0.868,0.42
208227,1755606283515,17.08,65.49,115.05,844,770,868,366,904,34.48275862068966,-0.278,0.871,0.423
208257,1755606283544,17.06,65.49,115.07,845,779,862,352,905,33.333333333333336,-0.278,0.872,0.421
208287,1755606283574,17.03,65.42,115.07,846,777,865,404,907,33.333333333333336,-0.277,0.868,0.42
208316,1755606283604,17.02,65.41,115.03,841,777,868,418,905,34.48275862068966,-0.273,0.867,0.421
208346,1755606283633,17.01,65.41,115.04,848,777,874,405,908,33.333333333333336,-0.277,0.869,0.424
208405,1755606283693,17.01,65.45,115.09,850,780,865,352,909,34.48275862068966,-0.279,0.871,0.423
208425,1755606283713,17.0,65.46,115.1,847,779,864,362,907,50.0,-0.276,0.869,0.421
208455,1755606283742,17.0,65.45,115.08,847,778,862,366,908,33.333333333333336,-0.273,0.867,0.42
208485,1755606283772,17.0,65.41,115.01,844,773,866,419,909,33.333333333333336,-0.273,0.868,0.422
208514,1755606283802,17.01,65.4,114.99,850,776,865,400,912,34.48275862068966,-0.28,0.87,0.426
208544,1755606283833,17.01,65.45,115.01,850,777,856,374,911,33.333333333333336,-0.281,0.872,0.425
208565,1755606283853,17.0,65.46,115.03,860,774,865,419,917,47.61904761904762,-0.279,0.867,0.424
208585,1755606283874,17.01,65.46,115.02,850,770,881,378,905,50.0,-0.279,0.866,0.422
208606,1755606283894,17.02,65.46,115.02,848,769,867,328,909,47.61904761904762,-0.282,0.868,0.424
208626,1755606283914,17.02,65.46,115.04,848,778,866,381,906,50.0,-0.284,0.869,0.426
208656,1755606283943,17.02,65.46,115.11,848,777,866,381,913,33.333333333333336,-0.283,0.867,0.424
208686,1755606283973,17.01,65.48,115.15,846,779,859,420,905,33.333333333333336,-0.28,0.868,0.422
208745,1755606284033,16.97,65.43,115.18,852,777,863,376,907,33.333333333333336,-0.279,0.869,0.423
208775,1755606284062,16.98,65.43,115.21,850,767,862,340,905,33.333333333333336,-0.283,0.87,0.425
208804,1755606284092,16.96,65.43,115.25,847,769,862,333,905,34.48275862068966,-0.28,0.869,0.424
208834,1755606284121,16.96,65.4,115.26,846,768,866,412,910,33.333333333333336,-0.278,0.868,0.422
208864,1755606284151,16.96,65.37,115.24,840,772,860,410,905,33.333333333333336,-0.279,0.867,0.425
208893,1755606284181,16.97,65.41,115.29,846,781,865,357,908,34.48275862068966,-0.282,0.867,0.427
208923,1755606284210,16.99,65.44,115.34,848,773,862,357,908,33.333333333333336,-0.284,0.869,0.426
208953,1755606284240,16.96,65.43,115.37,849,774,860,385,913,33.333333333333336,-0.279,0.869,0.423
208982,1755606284270,16.96,65.42,115.36,850,776,865,423,905,34.48275862068966,-0.276,0.868,0.421
209012,1755606284302,16.95,65.42,115.36,847,774,855,397,908,33.333333333333336,-0.277,0.868,0.422
209034,1755606284322,16.95,65.41,115.37,849,778,864,411,910,45.45454545454545,-0.282,0.868,0.423
209063,1755606284351,16.94,65.43,115.41,848,778,861,404,913,34.48275862068966,-0.282,0.869,0.424
209093,1755606284381,16.94,65.46,115.44,848,775,860,359,908,33.333333333333336,-0.278,0.87,0.424
209123,1755606284410,16.94,65.44,115.46,845,777,863,359,908,33.333333333333336,-0.276,0.868,0.421
209152,1755606284440,16.93,65.42,115.44,849,776,864,400,910,34.48275862068966,-0.276,0.872,0.42
209182,1755606284470,16.9,65.39,115.43,861,775,864,405,908,33.333333333333336,-0.278,0.869,0.423
209212,1755606284499,16.89,65.39,115.46,847,776,867,388,919,33.333333333333336,-0.282,0.867,0.424
209241,1755606284529,16.87,65.38,115.46,847,775,866,350,910,34.48275862068966,-0.276,0.87,0.422
209271,1755606284558,16.85,65.31,115.44,848,770,865,359,907,33.333333333333336,-0.278,0.868,0.423
209301,1755606284588,16.86,65.29,115.43,849,775,868,416,911,33.333333333333336,-0.28,0.867,0.424
209331,1755606284618,16.85,65.27,115.42,847,773,873,408,909,33.333333333333336,-0.279,0.868,0.425
209360,1755606284647,16.86,65.28,115.45,849,774,861,367,913,34.48275862068966,-0.281,0.867,0.426
209390,1755606284677,16.86,65.28,115.49,846,772,864,357,911,33.333333333333336,-0.281,0.868,0.425
209419,1755606284707,16.86,65.26,115.48,844,772,859,409,908,34.48275862068966,-0.281,0.869,0.425
209449,1755606284737,16.86,65.25,115.48,846,779,867,437,910,33.333333333333336,-0.278,0.866,0.426
209479,1755606284766,16.87,65.27,115.49,846,770,861,389,906,33.333333333333336,-0.275,0.866,0.426
209508,1755606284796,16.87,65.23,115.48,850,774,868,341,908,34.48275862068966,-0.276,0.868,0.425
209538,1755606284825,16.86,65.19,115.49,853,770,865,359,908,33.333333333333336,-0.278,0.867,0.426
209568,1755606284855,16.86,65.2,115.51,841,778,865,402,906,33.333333333333336,-0.28,0.868,0.428
209597,1755606284885,16.87,65.22,115.56,856,777,861,405,909,34.48275862068966,-0.284,0.867,0.429
209627,1755606284914,16.87,65.24,115.59,850,775,863,379,904,33.333333333333336,-0.28,0.867,0.427
209657,1755606284944,16.86,65.24,115.59,848,769,860,347,913,33.333333333333336,-0.277,0.867,0.427
209686,1755606284974,16.87,65.24,115.62,845,769,866,378,910,34.48275862068966,-0.278,0.865,0.427
209716,1755606285003,16.87,65.21,115.6,843,768,864,429,910,33.333333333333336,-0.278,0.868,0.428
209746,1755606285034,16.87,65.23,115.64,841,777,867,389,906,33.333333333333336,-0.282,0.869,0.43
209766,1755606285054,16.88,65.23,115.67,842,777,858,412,911,50.0,-0.283,0.868,0.429
209796,1755606285083,16.87,65.28,115.69,851,774,861,406,914,33.333333333333336,-0.279,0.869,0.426
209825,1755606285113,16.86,65.28,115.69,850,779,865,346,903,34.48275862068966,-0.278,0.866,0.426
209855,1755606285143,16.87,65.27,115.7,847,773,864,350,913,33.333333333333336,-0.277,0.866,0.427
209885,1755606285172,16.86,65.27,115.72,845,768,875,393,905,33.333333333333336,-0.276,0.868,0.426
209914,1755606285202,16.87,65.29,115.72,850,782,864,394,910,34.48275862068966,-0.279,0.867,0.425
209944,1755606285231,16.86,65.28,115.72,850,774,863,369,904,33.333333333333336,-0.28,0.865,0.426
209974,1755606285261,16.85,65.27,115.73,844,775,863,335,910,33.333333333333336,-0.278,0.867,0.427
210003,1755606285291,16.86,65.29,115.75,844,769,860,376,904,34.48275862068966,-0.28,0.867,0.428
210033,1755606285320,16.85,65.32,115.78,846,770,864,426,908,33.333333333333336,-0.281,0.869,0.425
210063,1755606285350,16.87,65.35,115.77,846,772,858,403,906,33.333333333333336,-0.279,0.865,0.426
210092,1755606285380,16.88,65.39,115.77,846,777,861,365,907,34.48275862068966,-0.28,0.868,0.427
210122,1755606285410,16.88,65.38,115.78,844,770,863,351,908,33.333333333333336,-0.28,0.869,0.427
210152,1755606285439,16.88,65.38,115.79,848,774,863,400,909,33.333333333333336,-0.279,0.867,0.425
210181,1755606285469,16.88,65.39,115.78,842,773,867,413,911,34.48275862068966,-0.277,0.868,0.424
210211,1755606285498,16.88,65.37,115.78,847,769,855,378,911,33.333333333333336,-0.279,0.869,0.424
210240,1755606285528,16.87,65.36,115.82,845,775,866,313,908,34.48275862068966,-0.281,0.869,0.425
210270,1755606285558,16.84,65.41,115.84,850,780,865,360,910,33.333333333333336,-0.275,0.871,0.424
210300,1755606285587,16.83,65.43,115.88,849,768,863,409,915,33.333333333333336,-0.275,0.867,0.424
210329,1755606285617,16.83,65.0,115.87,842,775,867,402,917,34.48275862068966,-0.273,0.866,0.422
210359,1755606285647,16.81,64.97,115.84,843,774,868,343,909,33.333333333333336,-0.276,0.869,0.424
210389,1755606285676,16.78,64.94,115.87,846,777,864,353,911,33.333333333333336,-0.277,0.868,0.425
210419,1755606285706,16.77,64.93,115.88,843,771,864,413,906,33.333333333333336,-0.276,0.868,0.425
210448,1755606285736,16.75,64.95,115.89,846,776,866,424,908,34.48275862068966,-0.28,0.868,0.425
210478,1755606285766,16.73,64.94,115.91,849,781,868,400,907,33.333333333333336,-0.279,0.865,0.424
210508,1755606285795,16.74,64.97,115.91,846,777,866,352,909,33.333333333333336,-0.281,0.867,0.428
210538,1755606285825,16.74,64.96,115.94,845,779,870,364,905,33.333333333333336,-0.281,0.866,0.427
210567,1755606285855,16.76,64.99,115.97,850,778,865,420,905,34.48275862068966,-0.277,0.867,0.427
210597,1755606285885,16.74,64.98,115.97,850,781,865,405,909,33.333333333333336,-0.277,0.868,0.424
210627,1755606285914,16.74,64.95,115.95,857,771,852,359,915,33.333333333333336,-0.281,0.867,0.427
210656,1755606285945,16.74,64.97,115.98,847,777,862,351,908,34.48275862068966,-0.281,0.868,0.43
210677,1755606285965,16.74,65.0,116.0,843,780,871,385,910,47.61904761904762,-0.282,0.871,0.429
210707,1755606285994,16.71,65.0,116.03,848,774,866,352,904,33.333333333333336,-0.28,0.87,0.425
210736,1755606286024,16.73,65.0,116.04,845,774,864,380,906,34.48275862068966,-0.278,0.867,0.427
210766,1755606286054,16.75,65.05,116.07,836,777,864,410,910,33.333333333333336,-0.281,0.868,0.427
210796,1755606286083,16.74,65.05,116.1,845,780,864,390,906,33.333333333333336,-0.28,0.868,0.427
210826,1755606286113,16.73,65.03,116.11,847,776,862,345,911,33.333333333333336,-0.276,0.868,0.426
210855,1755606286143,16.74,65.02,116.13,846,777,864,351,903,34.48275862068966,-0.278,0.866,0.425
210885,1755606286174,16.71,65.05,116.15,844,770,859,398,908,33.333333333333336,-0.279,0.867,0.426
210906,1755606286193,16.69,65.03,116.15,844,776,860,344,910,47.61904761904762,-0.276,0.869,0.427
210935,1755606286223,16.68,65.03,116.18,850,776,860,404,907,34.48275862068966,-0.279,0.867,0.426
210965,1755606286253,16.68,65.07,116.22,847,772,862,418,908,33.333333333333336,-0.279,0.869,0.427
210995,1755606286282,16.68,65.09,116.23,844,780,860,405,906,33.333333333333336,-0.278,0.87,0.427
211025,1755606286312,16.68,65.11,116.26,843,776,866,348,907,33.333333333333336,-0.278,0.868,0.424
211054,1755606286342,16.67,65.12,116.25,847,775,860,361,906,34.48275862068966,-0.276,0.868,0.424
211084,1755606286371,16.64,65.12,116.23,840,778,864,419,910,33.333333333333336,-0.277,0.871,0.425
211114,1755606286401,16.63,65.15,116.24,847,772,857,417,910,33.333333333333336,-0.279,0.866,0.425
211143,1755606286431,16.65,65.2,116.26,846,775,860,332,909,34.48275862068966,-0.28,0.867,0.427
211173,1755606286461,16.65,65.25,116.3,845,768,864,333,909,33.333333333333336,-0.276,0.869,0.427
211203,1755606286491,16.64,65.28,116.31,845,777,859,373,911,33.333333333333336,-0.278,0.869,0.424
211233,1755606286521,16.62,65.3,116.3,847,774,862,422,905,33.333333333333336,-0.277,0.869,0.424
211263,1755606286550,16.64,65.32,116.29,847,770,864,401,917,33.333333333333336,-0.278,0.869,0.426
211292,1755606286580,16.66,65.33,116.34,847,776,859,355,909,34.48275862068966,-0.282,0.867,0.425
211322,1755606286610,16.65,65.37,116.37,847,780,863,352,914,33.333333333333336,-0.279,0.87,0.424
211372,1755606286660,16.65,65.36,116.39,848,776,863,375,908,50.0,-0.273,0.864,0.422
211402,1755606286690,16.66,65.33,116.39,845,778,858,409,908,33.333333333333336,-0.276,0.868,0.424
211432,1755606286720,16.66,65.36,116.44,846,775,865,424,908,33.333333333333336,-0.278,0.869,0.425
211462,1755606286749,16.64,65.37,116.47,843,778,869,393,909,33.333333333333336,-0.276,0.87,0.42
211491,1755606286779,16.64,65.32,116.45,845,786,862,350,907,34.48275862068966,-0.275,0.868,0.419
211521,1755606286809,16.68,65.34,116.48,844,775,864,363,902,33.333333333333336,-0.279,0.87,0.423
211551,1755606286838,16.67,65.36,116.51,845,774,861,410,909,33.333333333333336,-0.28,0.873,0.423
211580,1755606286868,16.65,65.35,116.52,840,774,861,405,904,34.48275862068966,-0.277,0.871,0.422
211610,1755606286898,16.67,65.38,116.55,851,781,860,371,910,33.333333333333336,-0.276,0.868,0.42
211640,1755606286927,16.67,65.38,116.55,843,777,863,352,906,33.333333333333336,-0.277,0.87,0.422
211669,1755606286957,16.68,65.39,116.56,843,775,860,388,910,34.48275862068966,-0.279,0.869,0.425
211699,1755606286987,16.68,65.43,116.61,849,773,858,430,908,33.333333333333336,-0.279,0.869,0.424
211729,1755606287016,16.67,65.45,116.63,831,778,866,400,905,33.333333333333336,-0.277,0.871,0.422
211759,1755606287046,16.66,65.38,116.63,847,777,865,354,907,33.333333333333336,-0.277,0.87,0.421
211789,1755606287076,16.67,65.35,116.62,848,777,863,338,910,33.333333333333336,-0.276,0.867,0.422
211818,1755606287106,16.68,65.35,116.62,840,781,865,379,905,34.48275862068966,-0.276,0.87,0.424
211848,1755606287135,16.69,65.38,116.66,861,780,854,409,908,33.333333333333336,-0.279,0.872,0.424
211878,1755606287165,16.68,65.4,116.71,846,781,853,389,908,33.333333333333336,-0.276,0.871,0.422
211907,1755606287195,16.68,65.41,116.7,847,775,861,340,904,34.48275862068966,-0.273,0.87,0.422
211937,1755606287225,16.69,65.39,116.71,845,775,865,361,904,33.333333333333336,-0.277,0.869,0.423
211967,1755606287255,16.69,65.38,116.74,852,780,857,401,907,33.333333333333336,-0.274,0.869,0.423
211997,1755606287285,16.69,65.4,116.75,855,770,860,418,908,33.333333333333336,-0.273,0.87,0.421
212027,1755606287314,16.7,65.39,116.75,845,775,858,368,909,33.333333333333336,-0.278,0.869,0.422
212056,1755606287344,16.7,65.42,116.77,839,774,863,348,910,34.48275862068966,-0.278,0.869,0.425
212086,1755606287374,16.68,65.45,116.78,846,777,860,334,910,33.333333333333336,-0.274,0.87,0.422
212116,1755606287404,16.68,65.42,116.78,845,777,858,392,907,33.333333333333336,-0.279,0.867,0.422
212146,1755606287433,16.69,65.45,116.79,848,781,861,393,903,33.333333333333336,-0.279,0.868,0.423
212175,1755606287463,16.68,65.45,116.8,846,774,859,357,906,34.48275862068966,-0.277,0.872,0.424
212205,1755606287492,16.7,65.44,116.83,842,772,865,336,907,33.333333333333336,-0.279,0.868,0.423
212235,1755606287522,16.7,65.46,116.86,848,779,859,380,909,33.333333333333336,-0.276,0.868,0.422
212264,1755606287552,16.71,65.48,116.88,845,778,861,415,913,34.48275862068966,-0.276,0.869,0.422
212294,1755606287582,16.71,65.47,116.89,846,776,859,364,910,33.333333333333336,-0.278,0.87,0.422
212324,1755606287612,16.7,65.46,116.89,845,777,854,300,907,33.333333333333336,-0.277,0.868,0.422
212354,1755606287642,16.71,65.48,116.89,842,776,858,341,897,33.333333333333336,-0.277,0.87,0.421
212384,1755606287672,16.7,65.47,116.9,851,774,863,407,913,33.333333333333336,-0.278,0.87,0.422
212404,1755606287691,16.68,65.47,116.91,846,777,863,349,906,50.0,-0.277,0.871,0.422
212434,1755606287721,16.67,65.46,116.92,846,768,861,401,905,33.333333333333336,-0.278,0.87,0.423
212463,1755606287751,16.68,65.48,116.96,841,775,860,410,904,34.48275862068966,-0.277,0.869,0.424
212493,1755606287781,16.67,65.5,116.99,843,775,861,330,909,33.333333333333336,-0.276,0.869,0.422
212523,1755606287810,16.67,65.49,116.98,846,777,863,329,909,33.333333333333336,-0.276,0.868,0.42
212553,1755606287840,16.68,65.49,116.96,841,775,859,376,907,33.333333333333336,-0.277,0.869,0.423
212582,1755606287870,16.68,65.51,117.0,844,769,855,405,905,34.48275862068966,-0.278,0.869,0.424
212612,1755606287899,16.67,65.53,117.03,848,776,864,403,908,33.333333333333336,-0.278,0.877,0.422
212642,1755606287929,16.66,65.54,117.06,845,772,863,361,910,33.333333333333336,-0.276,0.874,0.422
212671,1755606287959,16.67,65.56,117.08,848,774,856,363,911,34.48275862068966,-0.277,0.87,0.422
212701,1755606287988,16.67,65.56,117.09,845,771,862,421,910,33.333333333333336,-0.276,0.871,0.423
212731,1755606288018,16.68,65.6,117.12,847,777,862,423,905,33.333333333333336,-0.277,0.873,0.423
212760,1755606288048,16.68,65.63,117.15,842,771,863,368,904,34.48275862068966,-0.275,0.871,0.422
