timestamp_ms,recv_timestamp_ms,pitch,roll,yaw,flex1,flex2,flex3,flex4,flex5,sampling_hz,accel_x,accel_y,accel_z
238756,1755607108842,42.33,-72.49,-73.59,787,772,778,360,926,33.333333333333336,-0.676,-0.698,0.224
238785,1755607108844,42.35,-72.5,-73.62,783,769,773,412,927,34.48275862068966,-0.675,-0.699,0.224
238815,1755607108846,42.4,-72.49,-73.65,781,767,772,400,922,33.333333333333336,-0.678,-0.698,0.219
238844,1755607108849,42.4,-72.42,-73.62,785,775,776,336,927,34.48275862068966,-0.683,-0.698,0.219
238874,1755607108851,42.36,-72.41,-73.6,783,777,773,298,927,33.333333333333336,-0.679,-0.697,0.221
238903,1755607108853,42.38,-72.39,-73.62,788,778,781,393,924,34.48275862068966,-0.68,-0.696,0.22
238933,1755607108855,42.36,-72.4,-73.61,789,767,772,428,931,33.333333333333336,-0.683,-0.698,0.216
238992,1755607108859,42.32,-72.39,-73.63,790,775,781,351,927,33.333333333333336,-0.681,-0.695,0.223
239022,1755607108861,42.35,-72.43,-73.63,786,775,779,384,920,33.333333333333336,-0.682,-0.698,0.218
239051,1755607108863,42.31,-72.43,-73.6,791,775,780,422,924,34.48275862068966,-0.682,-0.696,0.219
239081,1755607108865,42.27,-72.4,-73.6,792,776,775,400,926,33.333333333333336,-0.68,-0.695,0.223
239110,1755607108867,42.28,-72.4,-73.62,787,767,774,342,926,34.48275862068966,-0.679,-0.696,0.22
239140,1755607108869,42.29,-72.41,-73.62,789,773,778,355,926,33.333333333333336,-0.68,-0.697,0.219
239170,1755607108871,42.27,-72.41,-73.62,788,768,782,403,928,33.333333333333336,-0.68,-0.695,0.22
239200,1755607108873,42.26,-72.42,-73.63,786,772,776,415,921,33.333333333333336,-0.681,-0.696,0.221
239259,1755607108878,42.25,-72.39,-73.6,787,775,778,332,919,33.333333333333336,-0.68,-0.696,0.22
239289,1755607108880,42.26,-72.4,-73.61,788,774,777,315,920,33.333333333333336,-0.681,-0.695,0.222
239318,1755607108881,42.23,-72.41,-73.62,788,767,776,404,926,34.48275862068966,-0.682,-0.695,0.221
239348,1755607108884,42.24,-72.47,-73.6,788,768,773,393,924,33.333333333333336,-0.682,-0.697,0.22
239407,1755607108887,42.21,-72.48,-73.6,788,779,782,328,931,33.333333333333336,-0.681,-0.696,0.224
239436,1755607108890,42.25,-72.51,-73.61,787,778,776,394,923,34.48275862068966,-0.681,-0.696,0.224
239466,1755607108891,42.21,-72.49,-73.6,789,776,779,409,921,33.333333333333336,-0.682,-0.694,0.221
239495,1755607108894,42.18,-72.49,-73.59,787,767,782,347,922,34.48275862068966,-0.682,-0.695,0.22
239525,1755607108896,42.26,-72.52,-73.59,786,775,776,320,925,33.333333333333336,-0.681,-0.697,0.219
239554,1755607108898,42.24,-72.51,-73.59,786,775,774,370,925,34.48275862068966,-0.682,-0.696,0.222
239584,1755607108900,42.24,-72.5,-73.6,786,779,780,418,926,33.333333333333336,-0.682,-0.695,0.222
239613,1755607108902,42.28,-72.53,-73.61,784,770,777,399,919,34.48275862068966,-0.682,-0.697,0.22
239643,1755607108904,42.29,-72.51,-73.6,783,770,779,335,923,33.333333333333336,-0.682,-0.696,0.221
239673,1755607108906,42.27,-72.48,-73.6,785,773,780,356,922,33.333333333333336,-0.682,-0.694,0.222
239702,1755607108908,42.29,-72.49,-73.61,785,772,773,414,922,34.48275862068966,-0.682,-0.696,0.22
239732,1755607108911,42.29,-72.48,-73.6,786,779,779,420,928,33.333333333333336,-0.681,-0.695,0.221
239762,1755607108912,42.29,-72.47,-73.62,788,779,778,371,926,33.333333333333336,-0.682,-0.695,0.222
239791,1755607108914,42.3,-72.48,-73.62,786,774,774,346,932,34.48275862068966,-0.683,-0.695,0.22
239821,1755607108916,42.3,-72.49,-73.61,788,774,777,388,925,33.333333333333336,-0.681,-0.695,0.222
239850,1755607108918,42.33,-72.48,-73.64,788,767,775,424,925,34.48275862068966,-0.68,-0.694,0.223
239880,1755607108920,42.34,-72.5,-73.64,785,777,780,399,923,33.333333333333336,-0.682,-0.696,0.22
239909,1755607108922,42.34,-72.55,-73.62,788,777,775,338,924,34.48275862068966,-0.683,-0.695,0.217
239939,1755607108925,42.33,-72.6,-73.64,785,777,773,356,928,33.333333333333336,-0.681,-0.694,0.219
239968,1755607108927,42.32,-72.62,-73.66,785,776,773,402,918,34.48275862068966,-0.681,-0.694,0.219
239998,1755607108929,42.31,-72.64,-73.66,790,773,776,388,924,33.333333333333336,-0.683,-0.697,0.218
240028,1755607108930,42.32,-72.65,-73.66,788,779,776,335,918,33.333333333333336,-0.68,-0.694,0.22
240057,1755607108932,42.3,-72.65,-73.67,784,776,776,295,922,34.48275862068966,-0.681,-0.697,0.22
240087,1755607108934,42.31,-72.62,-73.66,786,771,777,358,928,33.333333333333336,-0.681,-0.696,0.221
240117,1755607108936,42.31,-72.57,-73.68,786,772,778,404,925,33.333333333333336,-0.681,-0.696,0.221
240146,1755607108938,42.32,-72.54,-73.67,786,768,773,380,915,34.48275862068966,-0.681,-0.697,0.217
240176,1755607108940,42.35,-72.57,-73.67,786,774,779,327,924,33.333333333333336,-0.681,-0.694,0.219
240206,1755607108942,42.32,-72.56,-73.67,786,777,777,352,926,33.333333333333336,-0.682,-0.695,0.219
240235,1755607108944,42.31,-72.54,-73.65,786,777,775,416,924,34.48275862068966,-0.681,-0.696,0.219
240265,1755607108946,42.35,-72.54,-73.65,781,781,777,424,926,33.333333333333336,-0.68,-0.695,0.219
240294,1755607108948,42.33,-72.57,-73.66,783,768,772,358,919,34.48275862068966,-0.682,-0.695,0.218
240324,1755607108950,42.32,-72.55,-73.66,787,773,777,332,929,33.333333333333336,-0.681,-0.695,0.219
240383,1755607108954,42.32,-72.56,-73.68,785,774,780,411,923,33.333333333333336,-0.681,-0.694,0.22
240413,1755607108957,42.29,-72.55,-73.68,783,774,774,394,928,33.333333333333336,-0.681,-0.696,0.217
240442,1755607108959,42.29,-72.56,-73.67,783,774,775,349,923,34.48275862068966,-0.681,-0.697,0.217
240472,1755607108961,42.3,-72.57,-73.67,788,777,778,367,931,33.333333333333336,-0.68,-0.695,0.221
240501,1755607108963,42.27,-72.57,-73.69,787,776,775,423,925,34.48275862068966,-0.679,-0.696,0.22
240560,1755607108967,42.32,-72.58,-73.69,789,773,778,364,931,34.48275862068966,-0.679,-0.696,0.219
240620,1755607108971,42.31,-72.55,-73.68,785,777,777,405,923,33.333333333333336,-0.682,-0.699,0.217
240649,1755607108973,42.28,-72.56,-73.69,787,775,780,422,921,34.48275862068966,-0.679,-0.695,0.218
240678,1755607108975,42.26,-72.5,-73.69,782,779,775,367,920,34.48275862068966,-0.68,-0.695,0.218
240708,1755607108977,42.28,-72.49,-73.7,787,778,774,337,924,33.333333333333336,-0.681,-0.697,0.218
240738,1755607108979,42.3,-72.52,-73.71,782,776,774,372,931,33.333333333333336,-0.68,-0.697,0.217
240768,1755607108980,42.28,-72.52,-73.71,786,772,780,410,929,33.333333333333336,-0.679,-0.695,0.218
240797,1755607109008,42.26,-72.49,-73.71,784,767,777,404,924,34.48275862068966,-0.68,-0.696,0.218
240826,1755607109037,42.28,-72.51,-73.72,787,774,779,342,916,34.48275862068966,-0.68,-0.696,0.216
240856,1755607109067,42.29,-72.53,-73.73,782,771,772,357,923,33.333333333333336,-0.68,-0.695,0.218
240886,1755607109097,42.25,-72.51,-73.74,785,774,778,407,924,33.333333333333336,-0.68,-0.696,0.22
240915,1755607109127,42.28,-72.55,-73.75,783,768,775,410,924,34.48275862068966,-0.681,-0.698,0.218
240945,1755607109156,42.29,-72.61,-73.75,787,772,773,376,930,33.333333333333336,-0.68,-0.697,0.217
240975,1755607109186,42.23,-72.58,-73.77,784,780,777,333,924,33.333333333333336,-0.68,-0.695,0.218
241034,1755607109245,42.24,-72.57,-73.74,784,777,777,410,923,33.333333333333336,-0.679,-0.695,0.22
241064,1755607109275,42.23,-72.59,-73.77,791,778,778,411,927,33.333333333333336,-0.678,-0.696,0.218
241093,1755607109304,42.27,-72.62,-73.77,782,779,773,335,923,34.48275862068966,-0.682,-0.698,0.215
241123,1755607109334,42.24,-72.62,-73.73,785,779,781,342,927,33.333333333333336,-0.681,-0.697,0.217
241152,1755607109363,42.26,-72.64,-73.76,789,773,777,401,925,34.48275862068966,-0.678,-0.696,0.22
241182,1755607109393,42.3,-72.66,-73.77,787,776,778,417,926,33.333333333333336,-0.682,-0.697,0.217
241241,1755607109452,42.26,-72.66,-73.75,788,769,776,329,924,34.48275862068966,-0.679,-0.695,0.218
241271,1755607109482,42.24,-72.67,-73.76,788,775,776,371,927,33.333333333333336,-0.68,-0.695,0.218
241301,1755607109512,42.22,-72.68,-73.75,787,774,780,414,925,33.333333333333336,-0.681,-0.696,0.217
241330,1755607109541,42.24,-72.69,-73.75,786,779,773,407,924,34.48275862068966,-0.679,-0.697,0.219
241360,1755607109571,42.28,-72.72,-73.77,783,779,779,349,923,33.333333333333336,-0.679,-0.695,0.221
241389,1755607109600,42.28,-72.72,-73.78,784,774,779,336,925,34.48275862068966,-0.682,-0.698,0.217
241419,1755607109630,42.28,-72.73,-73.76,786,778,774,385,929,33.333333333333336,-0.681,-0.696,0.217
241478,1755607109689,42.27,-72.75,-73.79,789,775,781,366,924,34.48275862068966,-0.681,-0.697,0.217
241537,1755607109748,42.26,-72.76,-73.79,789,772,780,360,926,34.48275862068966,-0.68,-0.696,0.219
241567,1755607109778,42.27,-72.75,-73.8,786,769,779,422,920,33.333333333333336,-0.681,-0.697,0.218
241597,1755607109808,42.3,-72.75,-73.82,789,779,774,396,918,33.333333333333336,-0.68,-0.698,0.217
241626,1755607109837,42.29,-72.77,-73.83,791,772,774,343,922,34.48275862068966,-0.681,-0.697,0.217
241685,1755607109896,42.3,-72.76,-73.87,786,774,776,420,925,34.48275862068966,-0.678,-0.696,0.22
241715,1755607109926,42.34,-72.75,-73.91,787,777,778,425,927,33.333333333333336,-0.678,-0.697,0.218
241774,1755607109985,42.37,-72.82,-73.94,783,777,777,340,925,33.333333333333336,-0.68,-0.697,0.213
241833,1755607110044,42.34,-72.84,-73.94,790,772,773,429,924,34.48275862068966,-0.679,-0.699,0.216
241863,1755607110074,42.34,-72.84,-73.96,788,769,780,416,921,33.333333333333336,-0.679,-0.699,0.217
241892,1755607110104,42.34,-72.8,-73.96,785,773,778,341,922,34.48275862068966,-0.681,-0.699,0.214
241952,1755607110163,42.26,-72.78,-73.96,789,783,780,400,923,33.333333333333336,-0.679,-0.697,0.217
242011,1755607110222,42.23,-72.77,-73.94,786,781,780,382,929,34.48275862068966,-0.682,-0.698,0.216
242041,1755607110252,42.19,-72.73,-73.95,785,772,776,334,924,33.333333333333336,-0.679,-0.698,0.217
242070,1755607110281,42.2,-72.75,-73.96,788,774,777,386,926,34.48275862068966,-0.678,-0.701,0.215
242100,1755607110311,42.18,-72.76,-73.95,794,777,775,427,927,33.333333333333336,-0.678,-0.699,0.217
242129,1755607110340,42.19,-72.72,-73.96,783,776,781,391,923,34.48275862068966,-0.679,-0.698,0.217
242159,1755607110370,42.18,-72.71,-73.96,786,775,775,337,922,33.333333333333336,-0.679,-0.7,0.215
242189,1755607110400,42.16,-72.74,-73.95,783,767,780,359,928,33.333333333333336,-0.679,-0.7,0.217
242218,1755607110429,42.14,-72.76,-73.96,786,773,775,431,918,34.48275862068966,-0.679,-0.698,0.217
242248,1755607110459,42.14,-72.77,-73.98,788,774,779,429,926,33.333333333333336,-0.682,-0.698,0.215
242277,1755607110488,42.1,-72.79,-73.97,787,778,779,369,924,34.48275862068966,-0.68,-0.698,0.218
242307,1755607110518,42.11,-72.78,-73.98,790,772,777,314,923,33.333333333333336,-0.678,-0.698,0.22
242336,1755607110547,42.12,-72.81,-73.99,787,771,776,367,920,34.48275862068966,-0.68,-0.7,0.218
242366,1755607110577,42.15,-72.8,-73.99,787,779,780,399,923,33.333333333333336,-0.68,-0.696,0.22
242395,1755607110606,42.12,-72.81,-74.02,786,773,778,360,922,34.48275862068966,-0.681,-0.696,0.219
242425,1755607110637,42.12,-72.82,-74.02,790,780,777,272,927,33.333333333333336,-0.68,-0.699,0.216
242445,1755607110656,42.14,-72.83,-74.02,801,773,775,353,919,50.0,-0.679,-0.7,0.217
242475,1755607110686,42.13,-72.83,-74.06,783,777,773,354,925,33.333333333333336,-0.675,-0.698,0.22
242504,1755607110715,42.16,-72.79,-74.07,785,770,774,372,926,34.48275862068966,-0.678,-0.7,0.219
242534,1755607110745,42.16,-72.8,-74.06,788,774,777,469,925,33.333333333333336,-0.678,-0.7,0.218
242564,1755607110775,42.16,-72.8,-74.08,784,775,776,453,917,33.333333333333336,-0.677,-0.699,0.219
242593,1755607110804,42.16,-72.78,-74.1,788,778,781,389,923,34.48275862068966,-0.678,-0.699,0.217
242623,1755607110834,42.18,-72.78,-74.1,783,769,772,380,923,33.333333333333336,-0.676,-0.7,0.217
242652,1755607110863,42.2,-72.82,-74.13,786,769,776,410,933,34.48275862068966,-0.677,-0.699,0.218
242682,1755607110893,42.18,-72.8,-74.15,787,775,779,426,920,33.333333333333336,-0.678,-0.699,0.219
242712,1755607110923,42.16,-72.77,-74.18,788,774,773,378,932,33.333333333333336,-0.679,-0.702,0.218
242741,1755607110952,42.16,-72.73,-74.17,789,772,778,348,923,34.48275862068966,-0.679,-0.702,0.218
242771,1755607110982,42.12,-72.74,-74.18,785,771,777,367,918,33.333333333333336,-0.676,-0.698,0.218
242801,1755607111012,42.11,-72.76,-74.22,785,774,772,410,922,33.333333333333336,-0.677,-0.699,0.218
242830,1755607111041,42.1,-72.72,-74.19,788,780,776,411,927,34.48275862068966,-0.679,-0.701,0.22
242860,1755607111071,42.09,-72.7,-74.19,792,775,774,351,922,33.333333333333336,-0.674,-0.698,0.225
242890,1755607111101,42.11,-72.74,-74.23,788,779,776,335,930,33.333333333333336,-0.674,-0.699,0.222
242919,1755607111130,42.1,-72.79,-74.21,786,776,777,393,921,34.48275862068966,-0.678,-0.701,0.218
242949,1755607111160,42.09,-72.79,-74.2,790,777,776,419,921,33.333333333333336,-0.677,-0.699,0.22
242978,1755607111190,42.08,-72.77,-74.22,787,776,781,371,925,34.48275862068966,-0.676,-0.699,0.22
243008,1755607111219,42.07,-72.79,-74.21,783,772,777,328,922,33.333333333333336,-0.678,-0.701,0.219
243038,1755607111248,42.04,-72.79,-74.2,786,773,777,354,925,33.333333333333336,-0.676,-0.701,0.221
243067,1755607111278,42.05,-72.79,-74.2,786,770,772,402,925,34.48275862068966,-0.676,-0.701,0.222
243096,1755607111307,42.04,-72.77,-74.21,785,768,774,379,919,34.48275862068966,-0.676,-0.7,0.221
243126,1755607111337,42.05,-72.77,-74.2,789,774,778,328,930,33.333333333333336,-0.677,-0.7,0.219
243156,1755607111367,42.04,-72.79,-74.22,788,774,781,336,927,33.333333333333336,-0.677,-0.699,0.22
243185,1755607111396,42.04,-72.78,-74.22,787,767,775,397,928,34.48275862068966,-0.678,-0.7,0.22
243215,1755607111426,42.08,-72.79,-74.22,784,773,775,416,927,33.333333333333336,-0.675,-0.7,0.222
243245,1755607111455,42.11,-72.8,-74.25,781,779,780,372,924,33.333333333333336,-0.675,-0.699,0.222
243274,1755607111485,42.09,-72.82,-74.25,788,776,772,339,922,34.48275862068966,-0.678,-0.701,0.22
243333,1755607111545,42.05,-72.8,-74.25,791,777,779,414,922,34.48275862068966,-0.677,-0.699,0.22
243363,1755607111574,42.04,-72.77,-74.25,793,775,779,411,922,33.333333333333336,-0.675,-0.7,0.22
243393,1755607111604,42.06,-72.79,-74.26,789,781,776,347,934,33.333333333333336,-0.675,-0.701,0.22
243452,1755607111663,42.04,-72.74,-74.26,789,775,777,405,925,33.333333333333336,-0.676,-0.7,0.218
243481,1755607111692,42.04,-72.74,-74.25,781,775,777,419,924,34.48275862068966,-0.676,-0.701,0.22
243511,1755607111722,42.04,-72.75,-74.26,787,777,780,358,923,33.333333333333336,-0.675,-0.7,0.22
243540,1755607111751,42.03,-72.73,-74.27,781,775,779,342,929,34.48275862068966,-0.676,-0.699,0.219
243570,1755607111781,42.02,-72.74,-74.26,784,778,778,392,923,33.333333333333336,-0.678,-0.699,0.218
243600,1755607111810,42.01,-72.72,-74.25,782,768,778,440,927,33.333333333333336,-0.675,-0.699,0.22
243629,1755607111840,42.04,-72.73,-74.27,783,768,781,406,927,34.48275862068966,-0.675,-0.699,0.221
243659,1755607111869,42.05,-72.72,-74.27,781,773,780,334,926,33.333333333333336,-0.678,-0.699,0.22
243688,1755607111899,42.04,-72.74,-74.26,784,774,779,340,924,34.48275862068966,-0.678,-0.7,0.22
243718,1755607111929,42.06,-72.8,-74.27,787,773,776,392,922,33.333333333333336,-0.676,-0.699,0.221
243777,1755607111989,42.03,-72.78,-74.29,787,773,776,367,923,34.48275862068966,-0.678,-0.7,0.219
243807,1755607112018,42.03,-72.77,-74.29,783,777,779,327,924,33.333333333333336,-0.676,-0.701,0.22
243837,1755607112048,42.02,-72.78,-74.3,782,775,772,362,927,33.333333333333336,-0.676,-0.701,0.22
243866,1755607112077,42.02,-72.77,-74.3,788,773,776,374,922,34.48275862068966,-0.677,-0.7,0.221
243896,1755607112107,42.01,-72.76,-74.29,790,769,778,370,917,33.333333333333336,-0.676,-0.7,0.22
243925,1755607112136,42.02,-72.79,-74.31,787,780,773,331,920,34.48275862068966,-0.677,-0.701,0.22
243955,1755607112166,42.02,-72.79,-74.31,786,776,774,364,925,33.333333333333336,-0.678,-0.7,0.221
243984,1755607112195,42.02,-72.78,-74.31,785,779,776,414,919,34.48275862068966,-0.679,-0.7,0.222
244013,1755607112225,42.01,-72.77,-74.3,786,769,776,412,922,34.48275862068966,-0.677,-0.701,0.222
244043,1755607112254,42.02,-72.78,-74.31,787,777,777,356,923,33.333333333333336,-0.676,-0.702,0.222
244102,1755607112313,42.01,-72.74,-74.31,783,778,776,370,924,34.48275862068966,-0.679,-0.7,0.22
244132,1755607112343,42.01,-72.74,-74.3,788,778,778,418,925,33.333333333333336,-0.676,-0.701,0.221
244161,1755607112372,42.04,-72.73,-74.3,782,769,780,379,921,34.48275862068966,-0.675,-0.7,0.223
244191,1755607112402,42.03,-72.73,-74.33,786,769,774,338,932,33.333333333333336,-0.676,-0.699,0.222
244221,1755607112432,42.04,-72.72,-74.34,785,775,775,355,926,33.333333333333336,-0.679,-0.7,0.219
244250,1755607112462,42.02,-72.73,-74.34,789,775,778,412,922,34.48275862068966,-0.678,-0.7,0.218
244280,1755607112491,42.0,-72.71,-74.35,786,780,779,420,925,33.333333333333336,-0.674,-0.701,0.222
244310,1755607112521,42.02,-72.72,-74.37,788,776,776,360,934,33.333333333333336,-0.676,-0.701,0.22
244339,1755607112550,41.57,-72.7,-74.36,787,768,775,346,925,34.48275862068966,-0.678,-0.699,0.219
244369,1755607112580,41.56,-72.7,-74.36,782,776,777,400,923,33.333333333333336,-0.677,-0.7,0.219
244398,1755607112609,41.56,-72.72,-74.36,788,771,773,380,926,34.48275862068966,-0.676,-0.699,0.221
244428,1755607112639,41.56,-72.71,-74.37,785,780,778,365,929,33.333333333333336,-0.676,-0.7,0.222
244457,1755607112669,41.57,-72.72,-74.38,784,767,776,340,926,34.48275862068966,-0.676,-0.701,0.221
244487,1755607112698,41.59,-72.72,-74.37,785,779,777,371,928,33.333333333333336,-0.676,-0.701,0.222
244517,1755607112728,41.56,-72.7,-74.36,784,774,773,432,925,33.333333333333336,-0.678,-0.699,0.222
244576,1755607112787,41.54,-72.73,-74.34,787,771,779,355,929,33.333333333333336,-0.674,-0.701,0.223
244605,1755607112816,41.53,-72.76,-74.33,786,771,780,355,923,34.48275862068966,-0.676,-0.699,0.22
244635,1755607112846,41.48,-72.78,-74.36,788,774,776,420,926,33.333333333333336,-0.674,-0.698,0.22
244664,1755607112875,41.47,-72.77,-74.37,786,777,777,425,921,34.48275862068966,-0.674,-0.7,0.22
244694,1755607112905,41.46,-72.79,-74.37,782,776,777,366,918,33.333333333333336,-0.674,-0.7,0.22
244723,1755607112934,41.42,-72.81,-74.36,788,773,777,320,924,34.48275862068966,-0.676,-0.702,0.221
244753,1755607112964,41.37,-72.8,-74.34,788,779,779,380,924,33.333333333333336,-0.675,-0.699,0.224
244782,1755607112993,41.36,-72.76,-74.34,780,776,780,423,921,34.48275862068966,-0.675,-0.699,0.223
244812,1755607113023,41.35,-72.74,-74.32,781,776,781,396,923,33.333333333333336,-0.676,-0.7,0.223
244841,1755607113052,41.35,-72.71,-74.34,784,780,778,343,924,34.48275862068966,-0.675,-0.7,0.223
244871,1755607113082,41.33,-72.64,-74.35,784,767,777,355,919,33.333333333333336,-0.676,-0.696,0.222
244900,1755607113112,41.33,-72.65,-74.36,787,774,781,418,923,34.48275862068966,-0.678,-0.696,0.223
244959,1755607113171,41.31,-72.58,-74.35,778,774,778,360,922,34.48275862068966,-0.676,-0.699,0.223
244989,1755607113200,41.33,-72.59,-74.37,782,774,778,331,924,33.333333333333336,-0.675,-0.698,0.224
245019,1755607113230,41.33,-72.58,-74.39,787,776,778,396,923,33.333333333333336,-0.676,-0.699,0.224
245048,1755607113259,41.33,-72.54,-74.37,787,773,776,414,924,34.48275862068966,-0.676,-0.7,0.224
245078,1755607113289,41.33,-72.54,-74.38,786,773,781,332,928,33.333333333333336,-0.674,-0.7,0.226
245107,1755607113318,41.36,-72.54,-74.4,785,770,779,313,922,34.48275862068966,-0.674,-0.701,0.225
245137,1755607113348,41.36,-72.52,-74.39,788,773,775,359,929,33.333333333333336,-0.675,-0.701,0.226
245166,1755607113377,41.36,-72.5,-74.38,788,774,777,404,916,34.48275862068966,-0.674,-0.7,0.225
245196,1755607113407,41.38,-72.54,-74.38,784,777,776,407,925,33.333333333333336,-0.673,-0.7,0.226
245225,1755607113437,41.41,-72.53,-74.39,800,778,779,337,921,34.48275862068966,-0.675,-0.697,0.227
245255,1755607113466,41.43,-72.53,-74.39,785,778,778,354,924,33.333333333333336,-0.677,-0.699,0.226
245285,1755607113496,41.44,-72.53,-74.37,785,774,778,412,922,33.333333333333336,-0.675,-0.699,0.226
245314,1755607113525,41.44,-72.53,-74.39,792,771,775,409,930,34.48275862068966,-0.674,-0.698,0.228
245344,1755607113555,41.47,-72.51,-74.4,789,772,775,359,926,33.333333333333336,-0.675,-0.699,0.227
245374,1755607113585,41.48,-72.49,-74.39,781,769,775,330,924,33.333333333333336,-0.676,-0.699,0.225
245403,1755607113614,41.5,-72.48,-74.39,788,773,775,362,923,34.48275862068966,-0.674,-0.698,0.227
245433,1755607113644,41.51,-72.47,-74.4,785,772,778,416,925,33.333333333333336,-0.674,-0.7,0.225
245462,1755607113674,41.54,-72.5,-74.41,784,775,781,403,923,34.48275862068966,-0.675,-0.701,0.225
245521,1755607113732,41.59,-72.48,-74.42,781,774,777,343,922,34.48275862068966,-0.675,-0.7,0.226
245551,1755607113762,41.58,-72.46,-74.42,789,769,776,391,922,33.333333333333336,-0.674,-0.701,0.226
245580,1755607113791,41.63,-72.42,-74.41,785,781,776,413,927,34.48275862068966,-0.675,-0.701,0.227
245610,1755607113821,41.63,-72.46,-74.42,786,775,780,368,924,33.333333333333336,-0.677,-0.701,0.226
245640,1755607113851,41.65,-72.49,-74.42,783,773,780,337,920,33.333333333333336,-0.676,-0.701,0.226
245669,1755607113881,41.66,-72.49,-74.43,788,773,777,381,923,34.48275862068966,-0.677,-0.702,0.227
245699,1755607113910,41.63,-72.45,-74.42,779,769,773,377,924,33.333333333333336,-0.676,-0.701,0.228
245758,1755607113969,41.66,-72.5,-74.43,786,775,774,325,924,34.48275862068966,-0.676,-0.701,0.224
245788,1755607113999,41.63,-72.52,-74.43,788,768,778,350,923,33.333333333333336,-0.676,-0.7,0.226
245817,1755607114029,41.64,-72.51,-74.43,789,773,779,399,923,34.48275862068966,-0.675,-0.699,0.227
245847,1755607114058,41.62,-72.56,-74.44,786,780,776,415,922,33.333333333333336,-0.675,-0.7,0.224
245876,1755607114088,41.6,-72.6,-74.45,786,775,776,360,923,34.48275862068966,-0.675,-0.7,0.223
245965,1755607114177,41.59,-72.61,-74.45,788,779,775,412,920,34.48275862068966,-0.674,-0.7,0.224
245995,1755607114206,41.55,-72.62,-74.45,784,768,772,401,924,33.333333333333336,-0.675,-0.699,0.223
246025,1755607114236,41.55,-72.6,-74.46,788,778,775,323,925,33.333333333333336,-0.675,-0.699,0.225
246084,1755607114295,41.56,-72.6,-74.46,788,775,778,403,924,33.333333333333336,-0.673,-0.701,0.223
246113,1755607114324,41.57,-72.63,-74.47,783,770,774,421,927,34.48275862068966,-0.674,-0.701,0.224
246143,1755607114354,41.58,-72.6,-74.47,789,779,780,371,922,33.333333333333336,-0.675,-0.7,0.225
246172,1755607114383,41.58,-72.58,-74.47,787,771,775,349,925,34.48275862068966,-0.675,-0.7,0.224
246202,1755607114413,41.6,-72.61,-74.47,783,774,777,397,922,33.333333333333336,-0.674,-0.701,0.222
246231,1755607114442,41.58,-72.63,-74.48,785,776,778,411,925,34.48275862068966,-0.675,-0.701,0.223
246261,1755607114471,41.56,-72.57,-74.48,790,775,772,386,927,33.333333333333336,-0.675,-0.7,0.224
246319,1755607114531,41.58,-72.6,-74.49,786,784,777,371,922,34.48275862068966,-0.674,-0.702,0.223
246349,1755607114560,41.55,-72.58,-74.48,787,778,776,412,923,33.333333333333336,-0.674,-0.702,0.225
246378,1755607114590,41.56,-72.54,-74.48,784,774,778,403,921,34.48275862068966,-0.673,-0.701,0.225
246408,1755607114619,41.58,-72.56,-74.49,787,776,775,344,922,33.333333333333336,-0.675,-0.701,0.224
246437,1755607114649,41.55,-72.56,-74.47,782,779,776,351,919,34.48275862068966,-0.674,-0.701,0.224
246467,1755607114678,41.56,-72.53,-74.47,785,777,779,409,924,33.333333333333336,-0.672,-0.7,0.227
246497,1755607114708,41.57,-72.53,-74.49,786,778,781,411,923,33.333333333333336,-0.674,-0.701,0.224
246526,1755607114737,41.57,-72.54,-74.48,786,774,778,346,924,34.48275862068966,-0.674,-0.702,0.224
246556,1755607114767,41.58,-72.55,-74.48,786,771,775,332,930,33.333333333333336,-0.673,-0.7,0.227
246585,1755607114796,41.58,-72.55,-74.5,785,776,777,394,923,34.48275862068966,-0.674,-0.701,0.227
246615,1755607114826,41.57,-72.55,-74.49,786,779,775,410,932,33.333333333333336,-0.674,-0.701,0.225
246644,1755607114855,41.57,-72.54,-74.49,787,777,776,387,918,34.48275862068966,-0.674,-0.701,0.225
246674,1755607114885,41.57,-72.54,-74.5,786,771,775,324,919,33.333333333333336,-0.674,-0.7,0.226
246703,1755607114914,41.57,-72.52,-74.52,785,767,777,352,921,34.48275862068966,-0.672,-0.699,0.227
246733,1755607114944,41.59,-72.53,-74.55,789,778,778,410,919,33.333333333333336,-0.675,-0.701,0.225
246762,1755607114973,41.58,-72.53,-74.55,787,775,778,399,925,34.48275862068966,-0.676,-0.701,0.225
246821,1755607115033,41.62,-72.52,-74.57,788,768,777,329,936,33.333333333333336,-0.674,-0.701,0.227
246851,1755607115062,41.61,-72.54,-74.57,785,774,778,389,922,33.333333333333336,-0.675,-0.701,0.226
246880,1755607115092,41.57,-72.55,-74.57,784,766,772,416,920,34.48275862068966,-0.675,-0.701,0.225
246910,1755607115121,41.57,-72.54,-74.55,787,767,776,369,928,33.333333333333336,-0.675,-0.701,0.226
246939,1755607115151,41.57,-72.54,-74.57,787,772,782,331,922,34.48275862068966,-0.673,-0.7,0.227
246969,1755607115181,41.58,-72.56,-74.59,786,769,776,378,924,33.333333333333336,-0.674,-0.701,0.225
246999,1755607115211,41.57,-72.58,-74.59,787,779,772,422,920,33.333333333333336,-0.673,-0.7,0.228
247059,1755607115270,41.6,-72.58,-74.61,788,774,776,358,927,33.333333333333336,-0.674,-0.702,0.223
247147,1755607115358,41.58,-72.59,-74.63,786,774,777,431,928,34.48275862068966,-0.675,-0.704,0.225
247206,1755607115418,41.59,-72.58,-74.63,786,775,778,351,925,34.48275862068966,-0.672,-0.703,0.225
247236,1755607115448,41.6,-72.59,-74.63,786,771,775,365,924,33.333333333333336,-0.673,-0.704,0.225
247266,1755607115477,41.58,-72.57,-74.62,788,779,780,421,925,33.333333333333336,-0.673,-0.703,0.226
247296,1755607115507,41.58,-72.57,-74.63,785,779,780,410,922,33.333333333333336,-0.672,-0.701,0.224
247325,1755607115536,41.58,-72.57,-74.62,789,781,773,336,931,34.48275862068966,-0.673,-0.703,0.225
247355,1755607115566,41.57,-72.57,-74.62,785,773,774,333,923,33.333333333333336,-0.673,-0.702,0.228
247384,1755607115596,41.56,-72.56,-74.64,783,776,775,382,921,34.48275862068966,-0.674,-0.703,0.226
247414,1755607115625,41.58,-72.56,-74.62,788,772,773,414,925,33.333333333333336,-0.675,-0.703,0.225
247443,1755607115654,41.56,-72.51,-74.61,783,772,781,373,926,34.48275862068966,-0.671,-0.702,0.228
247473,1755607115684,41.57,-72.48,-74.63,782,779,776,327,919,33.333333333333336,-0.674,-0.702,0.227
247502,1755607115714,41.57,-72.49,-74.63,785,775,780,376,927,34.48275862068966,-0.675,-0.703,0.223
247532,1755607115743,41.59,-72.54,-74.63,784,772,778,417,926,33.333333333333336,-0.674,-0.702,0.224
247591,1755607115802,41.6,-72.5,-74.66,785,776,774,351,929,34.48275862068966,-0.673,-0.703,0.226
