timestamp_ms,recv_timestamp_ms,pitch,roll,yaw,flex1,flex2,flex3,flex4,flex5,sampling_hz,accel_x,accel_y,accel_z
186866,1755607317165,32.75,-156.17,-14.03,801,772,891,371,933,33.333333333333336,-0.549,-0.335,-0.77
186896,1755607317168,32.74,-156.19,-14.03,804,778,889,342,928,33.333333333333336,-0.549,-0.335,-0.769
186926,1755607317170,32.75,-156.17,-14.02,803,775,888,353,925,33.333333333333336,-0.552,-0.334,-0.766
186955,1755607317172,32.74,-156.13,-14.0,804,776,888,398,931,34.48275862068966,-0.553,-0.334,-0.767
186985,1755607317174,32.67,-156.12,-14.0,802,772,888,382,933,33.333333333333336,-0.545,-0.334,-0.771
187014,1755607317176,32.68,-156.13,-14.04,799,774,890,348,923,34.48275862068966,-0.545,-0.334,-0.771
187044,1755607317179,32.66,-156.18,-14.08,803,775,893,347,929,33.333333333333336,-0.546,-0.334,-0.77
187073,1755607317180,32.65,-156.15,-14.1,797,768,887,392,932,34.48275862068966,-0.551,-0.334,-0.767
187103,1755607317182,32.71,-156.11,-14.09,802,775,893,411,930,33.333333333333336,-0.554,-0.336,-0.766
187132,1755607317184,32.72,-156.12,-14.06,801,772,884,378,933,34.48275862068966,-0.552,-0.336,-0.767
187162,1755607317187,32.74,-156.1,-14.05,802,774,886,355,930,33.333333333333336,-0.55,-0.334,-0.768
187192,1755607317188,32.74,-156.11,-14.06,801,772,892,377,927,33.333333333333336,-0.55,-0.334,-0.769
187222,1755607317191,32.74,-156.11,-14.06,801,778,889,396,931,33.333333333333336,-0.552,-0.335,-0.767
187281,1755607317195,32.78,-156.07,-14.04,803,778,883,356,928,33.333333333333336,-0.553,-0.335,-0.768
187310,1755607317197,32.78,-156.08,-14.03,803,776,889,355,928,34.48275862068966,-0.551,-0.335,-0.768
187340,1755607317217,32.78,-156.09,-14.04,801,776,894,404,929,33.333333333333336,-0.551,-0.335,-0.767
187370,1755607317247,32.78,-156.1,-14.04,803,771,886,409,933,33.333333333333336,-0.554,-0.335,-0.766
187399,1755607317276,32.8,-156.07,-14.03,803,767,888,364,928,34.48275862068966,-0.553,-0.334,-0.765
187429,1755607317306,32.8,-156.08,-14.03,801,778,884,342,928,33.333333333333336,-0.554,-0.335,-0.766
187459,1755607317336,32.82,-156.1,-14.04,800,767,890,364,928,33.333333333333336,-0.553,-0.335,-0.766
187488,1755607317365,32.86,-156.06,-14.04,800,776,885,394,926,34.48275862068966,-0.555,-0.335,-0.765
187518,1755607317395,32.89,-156.04,-14.02,799,772,882,398,932,33.333333333333336,-0.555,-0.335,-0.766
187547,1755607317424,32.93,-156.02,-14.0,802,773,886,355,928,34.48275862068966,-0.552,-0.335,-0.765
187577,1755607317454,32.97,-156.04,-13.99,799,778,890,352,932,33.333333333333336,-0.554,-0.335,-0.767
187606,1755607317483,32.95,-156.04,-13.98,802,773,891,398,932,34.48275862068966,-0.552,-0.334,-0.767
187636,1755607317512,32.92,-156.0,-13.99,804,774,885,405,932,33.333333333333336,-0.549,-0.334,-0.768
187665,1755607317542,32.93,-156.0,-14.0,803,773,892,374,930,34.48275862068966,-0.552,-0.336,-0.766
187695,1755607317572,32.97,-156.01,-14.0,802,771,890,342,934,33.333333333333336,-0.555,-0.336,-0.765
187725,1755607317602,32.98,-155.96,-13.96,801,773,888,372,929,33.333333333333336,-0.554,-0.335,-0.766
187754,1755607317631,32.93,-155.95,-13.94,800,780,891,413,929,34.48275862068966,-0.55,-0.336,-0.767
187784,1755607317661,32.95,-155.95,-13.93,807,778,888,386,930,33.333333333333336,-0.552,-0.337,-0.766
187813,1755607317690,32.97,-155.94,-13.9,800,773,884,342,928,34.48275862068966,-0.554,-0.337,-0.765
187843,1755607317720,32.98,-155.92,-13.88,801,774,888,355,931,33.333333333333336,-0.556,-0.337,-0.764
187873,1755607317750,32.99,-155.89,-13.86,803,776,885,386,932,33.333333333333336,-0.552,-0.336,-0.765
187902,1755607317779,32.96,-155.89,-13.86,798,779,890,399,930,34.48275862068966,-0.552,-0.336,-0.766
187932,1755607317809,32.95,-155.89,-13.86,804,773,891,344,928,33.333333333333336,-0.555,-0.335,-0.764
187991,1755607317868,33.03,-155.81,-13.81,802,774,890,378,931,34.48275862068966,-0.556,-0.337,-0.761
188021,1755607317898,33.06,-155.79,-13.77,800,774,892,404,933,33.333333333333336,-0.557,-0.338,-0.763
188050,1755607317927,33.09,-155.79,-13.76,806,777,886,393,930,34.48275862068966,-0.557,-0.335,-0.764
188080,1755607317957,33.05,-155.76,-13.75,797,779,889,340,929,33.333333333333336,-0.554,-0.335,-0.765
188110,1755607317986,33.03,-155.79,-13.78,803,774,887,357,931,33.333333333333336,-0.555,-0.336,-0.765
188139,1755607318016,33.01,-155.78,-13.78,801,771,887,416,926,34.48275862068966,-0.555,-0.336,-0.762
188169,1755607318046,33.04,-155.75,-13.77,801,779,890,411,932,33.333333333333336,-0.557,-0.337,-0.762
188199,1755607318075,33.06,-155.73,-13.75,800,775,891,364,927,33.333333333333336,-0.557,-0.338,-0.762
188228,1755607318105,33.07,-155.72,-13.75,798,780,890,311,930,34.48275862068966,-0.556,-0.336,-0.762
188258,1755607318134,33.08,-155.71,-13.76,804,772,892,348,928,33.333333333333336,-0.556,-0.336,-0.763
188287,1755607318164,33.09,-155.73,-13.79,804,777,889,392,931,34.48275862068966,-0.558,-0.336,-0.763
188337,1755607318214,33.12,-155.73,-13.81,800,774,884,392,931,50.0,-0.557,-0.338,-0.763
188367,1755607318244,33.12,-155.76,-13.83,800,773,886,366,926,33.333333333333336,-0.559,-0.338,-0.762
188396,1755607318273,33.14,-155.75,-13.83,801,767,884,325,934,34.48275862068966,-0.559,-0.337,-0.761
188426,1755607318303,33.15,-155.71,-13.83,800,773,888,356,931,33.333333333333336,-0.557,-0.338,-0.762
188456,1755607318333,33.15,-155.71,-13.82,802,773,886,396,931,33.333333333333336,-0.558,-0.339,-0.762
188476,1755607318353,33.16,-155.72,-13.82,798,769,886,355,927,50.0,-0.558,-0.338,-0.761
188506,1755607318383,33.19,-155.71,-13.82,799,773,886,393,925,33.333333333333336,-0.559,-0.337,-0.761
188536,1755607318413,33.2,-155.71,-13.83,802,774,882,404,927,33.333333333333336,-0.557,-0.337,-0.763
188566,1755607318443,33.2,-155.71,-13.83,799,771,888,368,928,33.333333333333336,-0.557,-0.338,-0.762
188595,1755607318472,33.24,-155.74,-13.84,801,769,892,332,929,34.48275862068966,-0.56,-0.338,-0.761
188625,1755607318502,33.27,-155.69,-13.82,807,773,887,352,930,33.333333333333336,-0.559,-0.338,-0.76
188645,1755607318522,33.29,-155.68,-13.81,801,778,890,367,930,50.0,-0.557,-0.339,-0.762
188704,1755607318581,33.34,-155.7,-13.82,803,779,882,409,930,34.48275862068966,-0.559,-0.337,-0.76
188734,1755607318611,33.37,-155.68,-13.83,800,775,887,396,925,33.333333333333336,-0.558,-0.338,-0.761
188763,1755607318640,33.37,-155.68,-13.82,797,766,886,358,920,34.48275862068966,-0.558,-0.339,-0.761
188793,1755607318670,33.39,-155.68,-13.81,796,776,883,358,929,33.333333333333336,-0.557,-0.338,-0.76
188823,1755607318700,33.42,-155.66,-13.82,801,774,883,384,928,33.333333333333336,-0.556,-0.337,-0.762
188853,1755607318729,33.4,-155.65,-13.81,802,774,898,402,930,33.333333333333336,-0.555,-0.338,-0.763
188882,1755607318759,33.43,-155.67,-13.8,802,776,887,358,929,34.48275862068966,-0.558,-0.34,-0.76
188912,1755607318788,33.47,-155.65,-13.77,802,772,882,322,935,33.333333333333336,-0.559,-0.339,-0.76
188971,1755607318848,33.49,-155.65,-13.74,805,774,881,405,934,33.333333333333336,-0.555,-0.337,-0.764
189000,1755607318877,33.46,-155.65,-13.76,798,769,885,397,929,34.48275862068966,-0.555,-0.337,-0.764
189030,1755607318906,33.44,-155.66,-13.77,801,775,887,343,928,33.333333333333336,-0.556,-0.338,-0.762
189059,1755607318936,33.45,-155.64,-13.77,801,772,888,345,928,34.48275862068966,-0.557,-0.338,-0.761
189089,1755607318966,33.45,-155.63,-13.76,804,766,885,400,932,33.333333333333336,-0.557,-0.338,-0.764
189119,1755607318996,33.4,-155.63,-13.76,794,769,885,404,925,33.333333333333336,-0.556,-0.339,-0.763
189148,1755607319025,33.4,-155.64,-13.78,801,772,880,360,931,34.48275862068966,-0.556,-0.337,-0.762
189178,1755607319055,33.39,-155.62,-13.8,799,778,883,323,937,33.333333333333336,-0.557,-0.337,-0.762
189208,1755607319085,33.37,-155.65,-13.8,800,771,888,365,928,33.333333333333336,-0.559,-0.339,-0.761
189237,1755607319114,33.41,-155.65,-13.79,800,774,893,394,927,34.48275862068966,-0.559,-0.339,-0.759
189267,1755607319144,33.41,-155.65,-13.77,803,778,883,379,925,33.333333333333336,-0.559,-0.339,-0.76
189296,1755607319173,33.43,-155.65,-13.76,800,778,891,332,932,34.48275862068966,-0.559,-0.338,-0.76
189326,1755607319203,33.46,-155.66,-13.77,803,773,883,349,927,33.333333333333336,-0.558,-0.337,-0.759
189355,1755607319233,33.46,-155.64,-13.77,799,770,890,395,933,34.48275862068966,-0.558,-0.337,-0.762
189415,1755607319292,33.39,-155.62,-13.74,797,774,890,322,928,33.333333333333336,-0.56,-0.339,-0.76
189445,1755607319321,33.44,-155.62,-13.76,798,769,890,320,930,33.333333333333336,-0.566,-0.34,-0.757
189504,1755607319381,33.58,-155.62,-13.72,800,773,889,400,929,33.333333333333336,-0.566,-0.339,-0.755
189533,1755607319410,33.64,-155.57,-13.7,798,775,888,392,929,34.48275862068966,-0.562,-0.338,-0.759
189563,1755607319440,33.62,-155.59,-13.7,808,774,887,354,931,33.333333333333336,-0.559,-0.338,-0.763
189592,1755607319469,33.62,-155.61,-13.72,800,773,887,355,927,34.48275862068966,-0.559,-0.338,-0.761
189652,1755607319529,33.7,-155.58,-13.72,800,775,892,407,930,33.333333333333336,-0.561,-0.34,-0.76
189711,1755607319588,33.75,-155.58,-13.69,801,777,888,352,930,34.48275862068966,-0.558,-0.339,-0.762
189741,1755607319618,33.73,-155.58,-13.68,802,775,890,382,931,33.333333333333336,-0.557,-0.338,-0.763
189771,1755607319648,33.69,-155.57,-13.65,802,779,889,392,931,33.333333333333336,-0.555,-0.339,-0.762
189800,1755607319677,33.67,-155.58,-13.64,803,777,893,385,929,34.48275862068966,-0.556,-0.338,-0.762
189830,1755607319707,33.67,-155.58,-13.63,802,772,890,353,934,33.333333333333336,-0.56,-0.337,-0.759
189859,1755607319736,33.72,-155.56,-13.62,802,776,890,350,936,34.48275862068966,-0.56,-0.338,-0.761
189889,1755607319766,33.7,-155.58,-13.61,798,775,884,397,936,33.333333333333336,-0.558,-0.337,-0.762
189919,1755607319796,33.71,-155.59,-13.63,801,772,889,400,933,33.333333333333336,-0.558,-0.336,-0.759
189949,1755607319826,33.74,-155.57,-13.63,801,772,883,352,924,33.333333333333336,-0.56,-0.338,-0.76
189978,1755607319855,33.75,-155.55,-13.6,802,775,884,318,931,34.48275862068966,-0.561,-0.34,-0.759
190008,1755607319885,33.79,-155.55,-13.57,799,777,886,368,926,33.333333333333336,-0.561,-0.34,-0.758
190037,1755607319914,33.83,-155.52,-13.55,801,778,876,413,928,34.48275862068966,-0.56,-0.337,-0.759
190067,1755607319944,33.86,-155.49,-13.55,801,778,885,358,929,33.333333333333336,-0.556,-0.336,-0.762
190097,1755607319974,33.8,-155.51,-13.6,801,773,887,338,929,33.333333333333336,-0.553,-0.337,-0.766
190126,1755607320003,33.73,-155.55,-13.64,803,775,889,351,925,34.48275862068966,-0.556,-0.338,-0.764
190156,1755607320033,33.71,-155.54,-13.65,802,772,890,405,928,33.333333333333336,-0.56,-0.339,-0.759
190185,1755607320062,33.75,-155.53,-13.63,804,775,882,413,928,34.48275862068966,-0.563,-0.341,-0.758
190215,1755607320092,33.82,-155.5,-13.58,802,767,886,381,928,33.333333333333336,-0.562,-0.34,-0.758
190244,1755607320121,33.83,-155.5,-13.56,796,772,890,356,929,34.48275862068966,-0.559,-0.339,-0.762
190274,1755607320151,33.78,-155.51,-13.58,799,768,890,375,931,33.333333333333336,-0.557,-0.338,-0.762
190304,1755607320181,33.76,-155.5,-13.6,799,778,889,397,928,33.333333333333336,-0.558,-0.339,-0.76
190334,1755607320210,33.75,-155.52,-13.6,799,775,888,392,935,33.333333333333336,-0.562,-0.34,-0.759
190363,1755607320240,33.78,-155.51,-13.56,803,777,876,342,932,34.48275862068966,-0.562,-0.34,-0.758
190393,1755607320270,33.8,-155.46,-13.52,800,767,883,360,939,33.333333333333336,-0.559,-0.339,-0.758
190422,1755607320299,33.82,-155.47,-13.51,800,773,889,406,929,34.48275862068966,-0.561,-0.339,-0.76
190452,1755607320329,33.81,-155.47,-13.51,797,773,888,422,931,33.333333333333336,-0.56,-0.337,-0.761
190482,1755607320359,33.77,-155.46,-13.52,795,775,891,361,929,33.333333333333336,-0.559,-0.337,-0.761
190511,1755607320388,33.74,-155.48,-13.53,801,779,889,334,935,34.48275862068966,-0.56,-0.338,-0.76
190541,1755607320418,33.77,-155.47,-13.51,800,775,889,329,929,33.333333333333336,-0.562,-0.339,-0.759
190571,1755607320448,33.78,-155.46,-13.49,798,777,896,407,930,33.333333333333336,-0.562,-0.339,-0.759
190601,1755607320477,33.79,-155.44,-13.46,797,771,895,396,925,33.333333333333336,-0.561,-0.339,-0.759
190630,1755607320507,33.81,-155.41,-13.43,795,777,892,343,935,34.48275862068966,-0.567,-0.34,-0.759
190660,1755607320537,33.84,-155.4,-13.4,801,772,890,358,926,33.333333333333336,-0.565,-0.339,-0.759
190689,1755607320566,33.86,-155.41,-13.42,798,775,891,397,930,34.48275862068966,-0.565,-0.338,-0.761
190748,1755607320625,33.78,-155.44,-13.46,802,767,882,360,928,34.48275862068966,-0.561,-0.338,-0.759
190778,1755607320656,33.79,-155.44,-13.46,802,775,886,353,927,33.333333333333336,-0.564,-0.338,-0.758
190798,1755607320676,33.8,-155.43,-13.45,800,772,887,390,923,50.0,-0.565,-0.338,-0.758
190818,1755607320695,33.82,-155.42,-13.44,803,773,888,403,929,50.0,-0.565,-0.34,-0.758
190848,1755607320725,33.81,-155.42,-13.4,800,772,898,384,930,33.333333333333336,-0.565,-0.341,-0.757
190878,1755607320755,33.83,-155.39,-13.36,800,773,889,350,926,33.333333333333336,-0.565,-0.339,-0.757
190908,1755607320785,33.87,-155.39,-13.36,805,771,889,385,927,33.333333333333336,-0.563,-0.338,-0.758
190937,1755607320814,33.87,-155.4,-13.37,802,773,889,412,928,34.48275862068966,-0.561,-0.338,-0.759
190967,1755607320844,33.84,-155.4,-13.38,801,773,885,411,923,33.333333333333336,-0.562,-0.338,-0.758
191026,1755607320903,33.82,-155.39,-13.37,801,777,891,350,927,34.48275862068966,-0.563,-0.34,-0.756
191056,1755607320933,33.86,-155.35,-13.35,799,769,882,398,931,33.333333333333336,-0.564,-0.34,-0.757
191085,1755607320962,33.86,-155.37,-13.34,802,770,885,393,928,34.48275862068966,-0.563,-0.34,-0.759
191115,1755607320992,33.84,-155.37,-13.33,798,769,877,365,933,33.333333333333336,-0.561,-0.339,-0.757
191145,1755607321022,33.82,-155.35,-13.31,801,776,889,334,929,33.333333333333336,-0.562,-0.34,-0.758
191174,1755607321051,33.79,-155.36,-13.28,800,777,888,376,931,34.48275862068966,-0.565,-0.34,-0.756
191204,1755607321081,33.83,-155.35,-13.26,804,775,884,419,930,33.333333333333336,-0.566,-0.339,-0.753
191234,1755607321111,33.84,-155.31,-13.24,793,771,895,390,930,33.333333333333336,-0.565,-0.338,-0.755
191263,1755607321140,33.86,-155.32,-13.25,801,774,886,354,936,34.48275862068966,-0.565,-0.338,-0.756
191293,1755607321170,33.89,-155.34,-13.24,800,777,888,340,931,33.333333333333336,-0.566,-0.338,-0.755
191323,1755607321200,33.91,-155.35,-13.25,802,774,890,382,929,33.333333333333336,-0.567,-0.338,-0.754
191352,1755607321230,33.95,-155.35,-13.26,803,776,892,404,926,34.48275862068966,-0.565,-0.338,-0.754
191382,1755607321259,33.96,-155.34,-13.26,795,777,892,380,930,33.333333333333336,-0.562,-0.338,-0.758
191412,1755607321289,33.94,-155.4,-13.32,802,773,887,310,928,33.333333333333336,-0.563,-0.336,-0.757
191442,1755607321319,33.92,-155.37,-13.34,797,774,887,354,930,33.333333333333336,-0.562,-0.338,-0.756
191471,1755607321348,33.92,-155.33,-13.31,801,775,885,407,930,34.48275862068966,-0.564,-0.341,-0.757
191501,1755607321378,33.94,-155.36,-13.28,798,770,881,405,931,33.333333333333336,-0.564,-0.343,-0.756
191531,1755607321407,33.99,-155.36,-13.26,803,775,887,370,931,33.333333333333336,-0.565,-0.339,-0.755
191560,1755607321437,33.96,-155.34,-13.24,801,776,889,343,933,34.48275862068966,-0.564,-0.337,-0.757
191590,1755607321467,33.93,-155.34,-13.26,799,775,885,389,929,33.333333333333336,-0.562,-0.338,-0.759
191619,1755607321496,33.88,-155.37,-13.27,801,774,890,362,925,34.48275862068966,-0.563,-0.34,-0.759
191649,1755607321526,33.87,-155.37,-13.26,799,777,890,364,925,33.333333333333336,-0.565,-0.34,-0.756
191679,1755607321556,33.86,-155.35,-13.26,800,773,890,331,925,33.333333333333336,-0.565,-0.339,-0.754
191708,1755607321585,33.9,-155.35,-13.26,803,776,887,343,929,34.48275862068966,-0.566,-0.339,-0.756
191738,1755607321615,33.9,-155.34,-13.26,802,777,888,409,935,33.333333333333336,-0.564,-0.339,-0.758
191768,1755607321645,33.89,-155.37,-13.28,796,781,889,414,927,33.333333333333336,-0.565,-0.337,-0.756
191798,1755607321674,33.88,-155.4,-13.29,802,778,892,373,929,33.333333333333336,-0.567,-0.338,-0.757
191827,1755607321704,33.86,-155.4,-13.29,801,775,884,338,927,34.48275862068966,-0.565,-0.34,-0.757
191857,1755607321734,33.83,-155.41,-13.29,802,773,887,370,918,33.333333333333336,-0.566,-0.339,-0.756
191886,1755607321764,33.82,-155.41,-13.3,797,767,891,398,933,34.48275862068966,-0.567,-0.337,-0.755
191916,1755607321793,33.85,-155.4,-13.3,802,774,886,353,925,33.333333333333336,-0.568,-0.338,-0.753
191976,1755607321853,33.87,-155.38,-13.24,801,774,886,352,930,33.333333333333336,-0.57,-0.341,-0.754
192005,1755607321882,33.89,-155.39,-13.23,801,774,887,384,933,34.48275862068966,-0.568,-0.339,-0.754
192035,1755607321912,33.89,-155.36,-13.22,796,777,896,393,930,33.333333333333336,-0.568,-0.338,-0.754
192064,1755607321942,33.89,-155.36,-13.22,797,774,876,366,932,34.48275862068966,-0.568,-0.339,-0.755
192094,1755607321972,33.87,-155.35,-13.2,800,774,883,348,919,33.333333333333336,-0.57,-0.339,-0.754
192114,1755607321991,33.86,-155.36,-13.2,801,768,889,377,927,50.0,-0.569,-0.338,-0.753
192144,1755607322021,33.89,-155.36,-13.21,801,767,889,355,928,33.333333333333336,-0.57,-0.338,-0.75
192173,1755607322051,33.92,-155.32,-13.19,799,777,889,399,925,34.48275862068966,-0.569,-0.34,-0.753
192203,1755607322080,33.89,-155.33,-13.16,799,776,894,414,928,33.333333333333336,-0.569,-0.341,-0.754
192233,1755607322110,33.92,-155.3,-13.12,798,773,894,384,932,33.333333333333336,-0.571,-0.339,-0.75
192262,1755607322139,33.9,-155.24,-13.07,797,779,896,355,930,34.48275862068966,-0.569,-0.338,-0.753
192292,1755607322169,33.85,-155.25,-13.07,799,773,891,363,925,33.333333333333336,-0.567,-0.338,-0.754
192322,1755607322198,33.82,-155.27,-13.08,799,777,891,371,926,33.333333333333336,-0.566,-0.338,-0.753
192381,1755607322258,33.81,-155.27,-13.07,800,778,890,367,931,33.333333333333336,-0.573,-0.34,-0.751
192411,1755607322288,33.8,-155.25,-13.03,800,772,889,302,930,33.333333333333336,-0.572,-0.339,-0.748
192440,1755607322317,33.86,-155.24,-13.02,803,772,890,351,926,34.48275862068966,-0.573,-0.339,-0.747
192470,1755607322347,33.91,-155.21,-12.99,798,773,889,396,931,33.333333333333336,-0.574,-0.34,-0.748
192500,1755607322377,33.92,-155.21,-12.97,803,772,881,385,927,33.333333333333336,-0.573,-0.338,-0.749
192520,1755607322397,33.94,-155.2,-12.96,802,778,887,386,932,50.0,-0.572,-0.336,-0.749
192549,1755607322427,33.95,-155.2,-12.98,800,770,882,367,934,34.48275862068966,-0.572,-0.336,-0.751
192579,1755607322457,33.95,-155.21,-12.99,799,771,883,328,933,33.333333333333336,-0.572,-0.337,-0.75
192609,1755607322486,33.94,-155.18,-12.97,801,774,889,353,925,33.333333333333336,-0.573,-0.338,-0.748
192639,1755607322516,33.97,-155.19,-12.95,799,774,893,384,929,33.333333333333336,-0.576,-0.34,-0.747
192668,1755607322545,34.03,-155.16,-12.93,795,777,887,406,928,34.48275862068966,-0.575,-0.339,-0.747
192698,1755607322575,34.07,-155.15,-12.92,801,774,891,362,930,33.333333333333336,-0.574,-0.338,-0.748
192718,1755607322595,34.08,-155.14,-12.92,803,774,881,405,924,50.0,-0.573,-0.338,-0.75
192747,1755607322624,34.07,-155.15,-12.9,799,777,889,348,927,34.48275862068966,-0.574,-0.339,-0.748
192777,1755607322654,34.13,-155.12,-12.87,803,778,883,347,928,33.333333333333336,-0.576,-0.338,-0.745
192807,1755607322684,34.18,-155.07,-12.84,800,776,889,375,930,33.333333333333336,-0.574,-0.339,-0.747
192836,1755607322713,34.19,-155.06,-12.82,801,771,889,413,931,34.48275862068966,-0.575,-0.34,-0.749
192866,1755607322743,34.21,-155.05,-12.8,800,776,888,377,929,33.333333333333336,-0.575,-0.338,-0.746
192896,1755607322772,34.24,-155.01,-12.76,802,777,889,321,921,33.333333333333336,-0.574,-0.338,-0.745
192925,1755607322802,34.31,-154.95,-12.75,801,772,888,353,930,34.48275862068966,-0.573,-0.338,-0.746
192955,1755607322832,34.35,-154.97,-12.78,802,770,886,409,927,33.333333333333336,-0.574,-0.337,-0.749
192984,1755607322861,34.34,-155.0,-12.82,797,776,882,417,930,34.48275862068966,-0.573,-0.338,-0.751
193014,1755607322891,34.29,-155.01,-12.84,802,778,888,378,930,33.333333333333336,-0.573,-0.34,-0.749
193043,1755607322920,34.27,-155.03,-12.85,801,771,885,362,929,34.48275862068966,-0.577,-0.342,-0.748
193073,1755607322950,34.29,-155.06,-12.86,800,774,895,396,934,33.333333333333336,-0.576,-0.342,-0.747
193103,1755607322980,34.28,-155.05,-12.84,797,773,885,379,928,33.333333333333336,-0.574,-0.341,-0.747
193133,1755607323010,34.29,-155.04,-12.81,799,771,885,374,924,33.333333333333336,-0.576,-0.341,-0.746
193162,1755607323040,34.33,-155.02,-12.79,798,777,894,349,931,34.48275862068966,-0.577,-0.342,-0.746
193182,1755607323060,34.36,-155.02,-12.77,801,778,888,405,926,50.0,-0.577,-0.342,-0.746
193212,1755607323089,34.39,-155.01,-12.72,800,773,888,351,930,33.333333333333336,-0.577,-0.342,-0.744
193242,1755607323119,34.42,-154.99,-12.68,797,774,889,358,928,33.333333333333336,-0.575,-0.339,-0.745
193272,1755607323149,34.48,-154.99,-12.69,803,775,892,413,924,33.333333333333336,-0.574,-0.338,-0.746
193302,1755607323178,34.48,-154.99,-12.72,796,767,885,412,925,33.333333333333336,-0.574,-0.338,-0.747
193331,1755607323208,34.48,-155.0,-12.74,799,772,903,380,927,34.48275862068966,-0.575,-0.339,-0.746
193361,1755607323238,34.49,-155.0,-12.74,794,772,884,352,918,33.333333333333336,-0.577,-0.34,-0.743
193390,1755607323268,34.54,-155.0,-12.72,800,769,888,374,931,34.48275862068966,-0.578,-0.341,-0.745
193420,1755607323297,34.56,-154.99,-12.71,798,768,890,405,927,33.333333333333336,-0.575,-0.341,-0.747
193450,1755607323327,34.56,-154.98,-12.72,800,773,894,405,934,33.333333333333336,-0.572,-0.34,-0.749
193480,1755607323357,34.54,-155.01,-12.75,799,766,887,359,925,33.333333333333336,-0.573,-0.34,-0.749
193509,1755607323386,34.56,-155.0,-12.75,802,776,891,350,929,34.48275862068966,-0.576,-0.34,-0.745
193539,1755607323416,34.58,-154.97,-12.73,801,779,884,394,927,33.333333333333336,-0.578,-0.341,-0.746
193569,1755607323446,34.58,-154.95,-12.7,799,777,885,403,927,33.333333333333336,-0.576,-0.34,-0.747
193599,1755607323476,34.51,-154.97,-12.7,802,775,890,369,928,33.333333333333336,-0.573,-0.34,-0.749
193628,1755607323505,34.48,-154.98,-12.7,802,769,882,337,930,34.48275862068966,-0.575,-0.341,-0.748
193658,1755607323535,34.49,-154.99,-12.72,798,775,892,361,922,33.333333333333336,-0.576,-0.342,-0.746
193687,1755607323564,34.54,-154.98,-12.71,802,776,888,404,927,34.48275862068966,-0.578,-0.341,-0.743
193717,1755607323594,34.6,-154.97,-12.71,798,775,889,407,926,33.333333333333336,-0.577,-0.34,-0.745
193747,1755607323624,34.63,-154.97,-12.72,799,766,886,345,929,33.333333333333336,-0.575,-0.342,-0.747
193776,1755607323653,34.65,-154.98,-12.74,800,776,887,334,927,34.48275862068966,-0.574,-0.341,-0.747
193806,1755607323683,34.65,-154.99,-12.76,802,774,889,391,920,33.333333333333336,-0.577,-0.34,-0.746
193826,1755607323703,34.64,-155.0,-12.76,801,773,890,357,928,50.0,-0.578,-0.341,-0.747
193855,1755607323732,34.68,-154.98,-12.75,798,779,890,374,925,34.48275862068966,-0.576,-0.342,-0.744
193885,1755607323762,34.75,-154.96,-12.74,796,772,894,399,926,33.333333333333336,-0.578,-0.341,-0.745
193915,1755607323791,34.76,-154.95,-12.75,799,773,896,346,933,33.333333333333336,-0.577,-0.34,-0.748
193944,1755607323821,34.75,-154.97,-12.78,798,767,886,332,927,34.48275862068966,-0.574,-0.341,-0.748
194003,1755607323880,34.79,-154.95,-12.74,800,778,888,408,927,34.48275862068966,-0.577,-0.342,-0.746
194033,1755607323910,34.8,-154.93,-12.72,804,774,886,381,928,33.333333333333336,-0.574,-0.342,-0.747
194062,1755607323939,34.81,-154.93,-12.71,797,777,884,347,929,34.48275862068966,-0.575,-0.341,-0.748
194092,1755607323969,34.81,-154.93,-12.7,799,774,887,357,930,33.333333333333336,-0.575,-0.34,-0.746
194122,1755607323999,34.82,-154.93,-12.69,800,779,890,400,934,33.333333333333336,-0.576,-0.341,-0.747
194151,1755607324029,34.8,-154.95,-12.69,796,770,890,389,927,34.48275862068966,-0.574,-0.342,-0.747
194181,1755607324058,34.79,-154.97,-12.69,805,780,894,329,924,33.333333333333336,-0.576,-0.341,-0.745
194211,1755607324088,34.79,-154.97,-12.69,801,773,889,329,928,33.333333333333336,-0.576,-0.34,-0.746
194241,1755607324118,34.77,-154.94,-12.66,800,776,889,367,927,33.333333333333336,-0.576,-0.342,-0.745
194270,1755607324148,34.79,-154.95,-12.64,803,776,888,400,929,34.48275862068966,-0.577,-0.341,-0.744
194300,1755607324177,34.8,-154.96,-12.63,798,775,883,395,929,33.333333333333336,-0.578,-0.34,-0.744
194330,1755607324207,34.83,-154.93,-12.61,799,772,889,344,926,33.333333333333336,-0.577,-0.339,-0.744
194360,1755607324237,34.86,-154.93,-12.61,798,768,883,338,928,33.333333333333336,-0.576,-0.334,-0.744
194389,1755607324266,34.88,-154.95,-12.61,801,775,890,391,930,34.48275862068966,-0.576,-0.335,-0.745
194419,1755607324296,34.88,-154.94,-12.61,797,776,888,372,929,33.333333333333336,-0.576,-0.337,-0.744
194449,1755607324326,34.86,-154.93,-12.6,800,775,886,346,924,33.333333333333336,-0.574,-0.338,-0.747
194478,1755607324355,34.83,-154.95,-12.6,796,767,884,327,932,34.48275862068966,-0.574,-0.338,-0.747
194508,1755607324385,34.81,-154.97,-12.61,798,774,887,357,925,33.333333333333336,-0.575,-0.338,-0.746
194537,1755607324414,34.84,-154.98,-12.63,799,773,886,400,929,34.48275862068966,-0.578,-0.338,-0.743
194567,1755607324444,34.87,-154.93,-12.62,798,776,887,399,929,33.333333333333336,-0.576,-0.339,-0.744
194597,1755607324474,34.9,-154.95,-12.61,798,776,890,325,932,33.333333333333336,-0.577,-0.341,-0.746
194626,1755607324503,34.9,-154.97,-12.6,799,777,890,342,928,34.48275862068966,-0.575,-0.341,-0.745
194656,1755607324533,34.9,-154.95,-12.6,799,767,887,379,929,33.333333333333336,-0.578,-0.339,-0.744
194685,1755607324563,34.88,-154.95,-12.61,799,774,891,403,924,34.48275862068966,-0.576,-0.34,-0.746
194715,1755607324592,34.88,-154.96,-12.61,799,778,882,379,926,33.333333333333336,-0.575,-0.34,-0.745
194745,1755607324622,34.86,-154.97,-12.63,799,773,886,338,925,33.333333333333336,-0.576,-0.339,-0.746
194775,1755607324652,34.8,-154.99,-12.64,797,773,886,351,923,33.333333333333336,-0.577,-0.34,-0.745
194804,1755607324681,34.76,-154.98,-12.63,797,774,886,403,919,34.48275862068966,-0.579,-0.342,-0.743
194834,1755607324711,34.75,-154.96,-12.61,799,775,888,393,929,33.333333333333336,-0.579,-0.342,-0.744
194864,1755607324741,34.73,-154.98,-12.58,794,774,883,359,934,33.333333333333336,-0.578,-0.342,-0.743
194893,1755607324770,34.73,-154.99,-12.57,796,773,892,352,934,34.48275862068966,-0.579,-0.34,-0.742
194923,1755607324800,34.74,-154.99,-12.57,796,773,885,377,934,33.333333333333336,-0.58,-0.339,-0.742
194953,1755607324830,34.75,-154.97,-12.56,797,769,885,407,928,33.333333333333336,-0.579,-0.339,-0.741
194982,1755607324860,34.78,-154.96,-12.56,799,771,881,388,937,34.48275862068966,-0.581,-0.339,-0.741
195012,1755607324889,34.8,-154.96,-12.55,802,774,887,337,929,33.333333333333336,-0.581,-0.34,-0.741
195042,1755607324919,34.85,-154.96,-12.57,800,779,896,349,922,33.333333333333336,-0.58,-0.34,-0.742
195071,1755607324948,34.86,-155.0,-12.59,796,776,886,392,931,34.48275862068966,-0.58,-0.339,-0.743
195101,1755607324978,34.88,-155.02,-12.61,799,776,888,403,928,33.333333333333336,-0.579,-0.34,-0.743
195130,1755607325007,34.91,-155.0,-12.61,799,774,887,369,922,34.48275862068966,-0.581,-0.34,-0.742
195160,1755607325037,34.95,-154.99,-12.61,801,774,891,339,930,33.333333333333336,-0.582,-0.34,-0.74
195190,1755607325067,34.99,-154.96,-12.58,800,771,888,385,933,33.333333333333336,-0.581,-0.341,-0.741
195219,1755607325096,34.99,-154.96,-12.57,799,770,888,420,925,34.48275862068966,-0.579,-0.341,-0.744
195249,1755607325126,35.01,-154.96,-12.57,804,777,890,383,932,33.333333333333336,-0.577,-0.342,-0.744
195279,1755607325156,34.94,-154.97,-12.56,800,778,888,350,928,33.333333333333336,-0.579,-0.339,-0.743
195338,1755607325215,35.03,-154.93,-12.55,799,775,885,397,926,33.333333333333336,-0.579,-0.342,-0.742
195367,1755607325244,35.06,-154.95,-12.56,801,773,887,400,931,34.48275862068966,-0.58,-0.341,-0.744
195397,1755607325274,35.06,-154.95,-12.57,797,773,889,345,929,33.333333333333336,-0.578,-0.341,-0.743
195426,1755607325304,35.03,-154.96,-12.59,798,776,884,339,931,34.48275862068966,-0.578,-0.341,-0.744
195456,1755607325333,35.02,-154.97,-12.6,797,770,883,384,928,33.333333333333336,-0.579,-0.341,-0.744
195486,1755607325363,35.03,-154.97,-12.6,794,773,884,417,931,33.333333333333336,-0.58,-0.342,-0.742
195515,1755607325393,35.05,-154.96,-12.59,797,770,888,386,935,34.48275862068966,-0.581,-0.341,-0.743
195545,1755607325422,35.03,-154.95,-12.59,801,767,889,342,927,33.333333333333336,-0.579,-0.342,-0.743
195575,1755607325452,35.05,-154.96,-12.58,798,778,885,352,927,33.333333333333336,-0.581,-0.343,-0.741
195604,1755607325482,35.11,-154.94,-12.55,806,773,888,394,927,34.48275862068966,-0.582,-0.342,-0.741
195625,1755607325502,35.13,-154.9,-12.53,800,771,888,313,930,47.61904761904762,-0.58,-0.342,-0.742
