timestamp_ms,recv_timestamp_ms,pitch,roll,yaw,flex1,flex2,flex3,flex4,flex5,sampling_hz,accel_x,accel_y,accel_z
1970-01-01 00:00:00.000212350,1755598003887,19.62,-48.0,2.81,767.0,766.0,911.0,951.0,921.0,34.48275862068966,-0.338,-0.702,0.624
1970-01-01 00:00:00.000212380,1755598003889,19.62,-48.01,2.81,,,,,,33.333333333333336,-0.34,-0.703,0.623
1970-01-01 00:00:00.000212409,1755598003892,19.61,-47.98,2.83,,,,,,34.48275862068966,-0.339,-0.703,0.624
1970-01-01 00:00:00.000212468,1755598003896,19.63,-47.96,2.84,,,,,,34.48275862068966,-0.338,-0.702,0.624
1970-01-01 00:00:00.000212498,1755598003898,19.61,-47.95,2.83,,,,,,33.333333333333336,-0.338,-0.701,0.623
1970-01-01 00:00:00.000212527,1755598003900,19.63,-47.97,2.84,,,,,,34.48275862068966,-0.339,-0.701,0.624
1970-01-01 00:00:00.000212557,1755598003902,19.65,-47.96,2.85,,,,,,33.333333333333336,-0.339,-0.701,0.626
1970-01-01 00:00:00.000212586,1755598003904,19.65,-47.93,2.86,,,,,,34.48275862068966,-0.338,-0.701,0.624
1970-01-01 00:00:00.000212645,1755598003907,19.63,-47.95,2.84,,,,,,34.48275862068966,-0.338,-0.701,0.624
1970-01-01 00:00:00.000212675,1755598003910,19.64,-47.93,2.85,,,,,,33.333333333333336,-0.339,-0.701,0.626
1970-01-01 00:00:00.000212704,1755598003912,19.65,-47.92,2.86,,,,,,34.48275862068966,-0.338,-0.7,0.625
1970-01-01 00:00:00.000212734,1755598003914,19.65,-47.94,2.85,,,,,,33.333333333333336,-0.338,-0.701,0.624
1970-01-01 00:00:00.000212763,1755598003916,19.65,-47.94,2.84,,,,,,34.48275862068966,-0.338,-0.702,0.625
1970-01-01 00:00:00.000212793,1755598003918,19.68,-47.93,2.85,,,,,,33.333333333333336,-0.338,-0.701,0.625
1970-01-01 00:00:00.000212822,1755598003920,19.69,-47.94,2.86,,,,,,34.48275862068966,-0.339,-0.7,0.625
1970-01-01 00:00:00.000212852,1755598003935,19.7,-47.96,2.85,,,,,,33.333333333333336,-0.34,-0.701,0.625
1970-01-01 00:00:00.000212911,1755598003994,19.73,-47.9,2.9,,,,,,33.333333333333336,-0.339,-0.704,0.627
1970-01-01 00:00:00.000212940,1755598004023,19.72,-47.89,2.9,,,,,,34.48275862068966,-0.338,-0.701,0.624
1970-01-01 00:00:00.000212970,1755598004053,19.73,-47.91,2.88,,,,,,33.333333333333336,-0.338,-0.7,0.625
1970-01-01 00:00:00.000212999,1755598004083,19.72,-47.9,2.88,,,,,,34.48275862068966,-0.34,-0.7,0.625
1970-01-01 00:00:00.000213029,1755598004112,19.72,-47.88,2.88,,,,,,33.333333333333336,-0.339,-0.703,0.627
1970-01-01 00:00:00.000213058,1755598004141,19.73,-47.86,2.91,,,,,,34.48275862068966,-0.338,-0.702,0.626
1970-01-01 00:00:00.000213088,1755598004171,19.73,-47.85,2.9,,,,,,33.333333333333336,-0.338,-0.699,0.624
1970-01-01 00:00:00.000213117,1755598004201,19.73,-47.88,2.87,,,,,,34.48275862068966,-0.339,-0.7,0.626
1970-01-01 00:00:00.000213147,1755598004230,19.75,-47.9,2.88,,,,,,33.333333333333336,-0.34,-0.701,0.628
1970-01-01 00:00:00.000213177,1755598004260,19.78,-47.89,2.92,,,,,,33.333333333333336,-0.342,-0.702,0.628
1970-01-01 00:00:00.000213206,1755598004289,19.76,-47.85,2.93,,,,,,34.48275862068966,-0.339,-0.7,0.627
1970-01-01 00:00:00.000213236,1755598004319,19.74,-47.85,2.91,,,,,,33.333333333333336,-0.337,-0.699,0.624
1970-01-01 00:00:00.000213265,1755598004349,19.75,-47.88,2.89,,,,,,34.48275862068966,-0.338,-0.699,0.624
1970-01-01 00:00:00.000213295,1755598004378,19.76,-47.89,2.9,,,,,,33.333333333333336,-0.34,-0.702,0.627
1970-01-01 00:00:00.000213324,1755598004407,19.75,-47.85,2.92,,,,,,34.48275862068966,-0.339,-0.701,0.626
1970-01-01 00:00:00.000213354,1755598004437,19.76,-47.82,2.92,,,,,,33.333333333333336,-0.338,-0.699,0.625
1970-01-01 00:00:00.000213383,1755598004467,19.75,-47.85,2.9,,,,,,34.48275862068966,-0.337,-0.697,0.624
1970-01-01 00:00:00.000213413,1755598004496,19.73,-47.88,2.86,,,,,,33.333333333333336,-0.338,-0.699,0.627
1970-01-01 00:00:00.000213443,1755598004526,19.76,-47.85,2.9,,,,,,33.333333333333336,-0.34,-0.701,0.628
1970-01-01 00:00:00.000213473,1755598004556,19.76,-47.83,2.93,,,,,,33.333333333333336,-0.339,-0.699,0.626
1970-01-01 00:00:00.000213502,1755598004585,19.77,-47.85,2.93,,,,,,34.48275862068966,-0.339,-0.7,0.627
1970-01-01 00:00:00.000213531,1755598004615,19.79,-47.84,2.95,,,,,,34.48275862068966,-0.338,-0.699,0.628
1970-01-01 00:00:00.000213561,1755598004644,19.79,-47.84,2.95,,,,,,33.333333333333336,-0.337,-0.699,0.626
1970-01-01 00:00:00.000213590,1755598004674,19.76,-47.86,2.94,,,,,,34.48275862068966,-0.338,-0.7,0.627
1970-01-01 00:00:00.000213620,1755598004703,19.77,-47.84,2.96,,,,,,33.333333333333336,-0.339,-0.701,0.628
1970-01-01 00:00:00.000213679,1755598004762,19.76,-47.83,2.99,,,,,,33.333333333333336,-0.337,-0.698,0.626
1970-01-01 00:00:00.000213709,1755598004792,19.77,-47.88,2.98,,,,,,33.333333333333336,-0.338,-0.699,0.627
1970-01-01 00:00:00.000213738,1755598004822,19.82,-47.87,3.0,,,,,,34.48275862068966,-0.34,-0.7,0.628
1970-01-01 00:00:00.000213768,1755598004851,19.82,-47.85,3.0,,,,,,33.333333333333336,-0.34,-0.699,0.627
1970-01-01 00:00:00.000213798,1755598004881,19.82,-47.87,2.99,,,,,,33.333333333333336,-0.34,-0.7,0.626
1970-01-01 00:00:00.000213827,1755598004910,19.85,-47.86,3.02,,,,,,34.48275862068966,-0.339,-0.7,0.627
1970-01-01 00:00:00.000213857,1755598004940,19.88,-47.84,3.03,,,,,,33.333333333333336,-0.34,-0.699,0.626
1970-01-01 00:00:00.000213886,1755598004970,19.87,-47.86,3.02,,,,,,34.48275862068966,-0.342,-0.698,0.626
1970-01-01 00:00:00.000213916,1755598004999,19.86,-47.83,3.03,,,,,,33.333333333333336,-0.341,-0.7,0.627
1970-01-01 00:00:00.000213946,1755598005029,19.87,-47.79,3.07,,,,,,33.333333333333336,-0.339,-0.7,0.626
1970-01-01 00:00:00.000213975,1755598005058,19.88,-47.81,3.06,,,,,,34.48275862068966,-0.34,-0.7,0.626
1970-01-01 00:00:00.000214004,1755598005088,19.85,-47.78,3.06,,,,,,34.48275862068966,-0.34,-0.701,0.627
1970-01-01 00:00:00.000214093,1755598005176,19.86,-47.76,3.1,,,,,,33.333333333333336,-0.341,-0.696,0.627
1970-01-01 00:00:00.000214122,1755598005206,19.87,-47.77,3.11,,,,,,34.48275862068966,-0.342,-0.697,0.628
1970-01-01 00:00:00.000214181,1755598005265,19.91,-47.77,3.14,,,,,,34.48275862068966,-0.34,-0.698,0.627
1970-01-01 00:00:00.000214211,1755598005294,19.91,-47.78,3.13,,,,,,33.333333333333336,-0.338,-0.698,0.627
1970-01-01 00:00:00.000214241,1755598005324,19.94,-47.81,3.1,,,,,,33.333333333333336,-0.342,-0.697,0.627
1970-01-01 00:00:00.000214270,1755598005353,19.92,-47.81,3.08,,,,,,34.48275862068966,-0.345,-0.698,0.627
1970-01-01 00:00:00.000214300,1755598005383,19.88,-47.78,3.09,,,,,,33.333333333333336,-0.342,-0.699,0.627
1970-01-01 00:00:00.000214329,1755598005413,19.89,-47.77,3.1,,,,,,34.48275862068966,-0.337,-0.697,0.625
1970-01-01 00:00:00.000214389,1755598005472,19.88,-47.83,3.02,,,,,,33.333333333333336,-0.34,-0.698,0.626
1970-01-01 00:00:00.000214418,1755598005501,19.87,-47.8,3.03,,,,,,34.48275862068966,-0.343,-0.699,0.627
1970-01-01 00:00:00.000214447,1755598005531,19.88,-47.78,3.07,,,,,,34.48275862068966,-0.341,-0.7,0.629
1970-01-01 00:00:00.000214477,1755598005560,19.9,-47.74,3.09,,,,,,33.333333333333336,-0.337,-0.698,0.628
1970-01-01 00:00:00.000214506,1755598005589,19.9,-47.74,3.07,,,,,,34.48275862068966,-0.336,-0.695,0.625
1970-01-01 00:00:00.000214536,1755598005619,19.89,-47.8,3.05,,,,,,33.333333333333336,-0.339,-0.696,0.626
1970-01-01 00:00:00.000214565,1755598005648,19.9,-47.81,3.06,,,,,,34.48275862068966,-0.342,-0.699,0.629
1970-01-01 00:00:00.000214595,1755598005678,19.9,-47.78,3.07,,,,,,33.333333333333336,-0.341,-0.697,0.628
1970-01-01 00:00:00.000214615,1755598005698,19.9,-47.78,3.07,,,,,,50.0,-0.339,-0.696,0.625
1970-01-01 00:00:00.000214635,1755598005718,19.89,-47.81,3.07,,,,,,50.0,-0.338,-0.698,0.625
1970-01-01 00:00:00.000214665,1755598005748,19.92,-47.86,3.06,,,,,,33.333333333333336,-0.34,-0.699,0.626
1970-01-01 00:00:00.000214694,1755598005777,19.9,-47.83,3.08,,,,,,34.48275862068966,-0.341,-0.698,0.627
1970-01-01 00:00:00.000214724,1755598005807,19.89,-47.81,3.09,,,,,,33.333333333333336,-0.34,-0.699,0.627
1970-01-01 00:00:00.000214753,1755598005836,19.91,-47.8,3.1,,,,,,34.48275862068966,-0.339,-0.699,0.625
1970-01-01 00:00:00.000214783,1755598005866,19.91,-47.81,3.11,,,,,,33.333333333333336,-0.339,-0.7,0.625
1970-01-01 00:00:00.000214812,1755598005896,19.9,-47.8,3.11,,,,,,34.48275862068966,-0.34,-0.7,0.626
1970-01-01 00:00:00.000214842,1755598005925,19.9,-47.78,3.11,,,,,,33.333333333333336,-0.34,-0.698,0.626
1970-01-01 00:00:00.000214871,1755598005955,19.89,-47.77,3.11,,,,,,34.48275862068966,-0.341,-0.697,0.626
1970-01-01 00:00:00.000214901,1755598005984,19.87,-47.77,3.11,,,,,,33.333333333333336,-0.34,-0.697,0.627
1970-01-01 00:00:00.000214960,1755598006043,19.89,-47.76,3.15,,,,,,33.333333333333336,-0.341,-0.698,0.628
1970-01-01 00:00:00.000214989,1755598006073,19.86,-47.76,3.15,,,,,,34.48275862068966,-0.339,-0.698,0.628
1970-01-01 00:00:00.000215019,1755598006102,19.87,-47.76,3.15,,,,,,33.333333333333336,-0.338,-0.698,0.628
1970-01-01 00:00:00.000215048,1755598006132,19.88,-47.77,3.14,,,,,,34.48275862068966,-0.339,-0.698,0.629
1970-01-01 00:00:00.000215078,1755598006161,19.86,-47.76,3.15,,,,,,33.333333333333336,-0.341,-0.7,0.63
1970-01-01 00:00:00.000215107,1755598006191,19.87,-47.74,3.17,,,,,,34.48275862068966,-0.34,-0.699,0.63
1970-01-01 00:00:00.000215137,1755598006220,19.86,-47.74,3.19,,,,,,33.333333333333336,-0.34,-0.697,0.628
1970-01-01 00:00:00.000215167,1755598006250,19.84,-47.76,3.17,,,,,,33.333333333333336,-0.34,-0.697,0.629
1970-01-01 00:00:00.000215196,1755598006279,19.85,-47.75,3.18,,,,,,34.48275862068966,-0.34,-0.699,0.63
1970-01-01 00:00:00.000215226,1755598006309,19.86,-47.73,3.19,,,,,,33.333333333333336,-0.339,-0.699,0.629
1970-01-01 00:00:00.000215255,1755598006339,19.86,-47.75,3.19,,,,,,34.48275862068966,-0.342,-0.7,0.63
1970-01-01 00:00:00.000215285,1755598006368,19.88,-47.73,3.23,,,,,,33.333333333333336,-0.341,-0.699,0.63
1970-01-01 00:00:00.000215344,1755598006427,19.84,-47.75,3.2,,,,,,33.333333333333336,-0.339,-0.699,0.63
1970-01-01 00:00:00.000215373,1755598006457,19.84,-47.75,3.2,,,,,,34.48275862068966,-0.34,-0.7,0.631
1970-01-01 00:00:00.000215403,1755598006486,19.83,-47.72,3.21,,,,,,33.333333333333336,-0.338,-0.698,0.63
1970-01-01 00:00:00.000215432,1755598006516,19.85,-47.73,3.21,,,,,,34.48275862068966,-0.339,-0.695,0.629
1970-01-01 00:00:00.000215462,1755598006545,19.85,-47.76,3.19,,,,,,33.333333333333336,-0.341,-0.698,0.631
1970-01-01 00:00:00.000215491,1755598006575,19.83,-47.74,3.2,,,,,,34.48275862068966,-0.34,-0.699,0.631
1970-01-01 00:00:00.000215521,1755598006604,19.85,-47.73,3.22,,,,,,33.333333333333336,-0.337,-0.698,0.629
1970-01-01 00:00:00.000215580,1755598006663,19.81,-47.78,3.19,,,,,,33.333333333333336,-0.339,-0.698,0.629
1970-01-01 00:00:00.000215609,1755598006693,19.83,-47.76,3.22,,,,,,34.48275862068966,-0.341,-0.699,0.631
1970-01-01 00:00:00.000215639,1755598006722,19.85,-47.75,3.24,,,,,,33.333333333333336,-0.34,-0.699,0.63
1970-01-01 00:00:00.000215668,1755598006752,19.82,-47.75,3.23,,,,,,34.48275862068966,-0.339,-0.698,0.627
1970-01-01 00:00:00.000215698,1755598006781,19.8,-47.74,3.22,,,,,,33.333333333333336,-0.337,-0.698,0.628
1970-01-01 00:00:00.000215727,1755598006810,19.83,-47.75,3.22,,,,,,34.48275862068966,-0.338,-0.699,0.63
1970-01-01 00:00:00.000215757,1755598006840,19.82,-47.75,3.22,,,,,,33.333333333333336,-0.34,-0.699,0.63
1970-01-01 00:00:00.000215786,1755598006870,19.78,-47.73,3.22,,,,,,34.48275862068966,-0.339,-0.698,0.629
1970-01-01 00:00:00.000215816,1755598006900,19.8,-47.74,3.23,,,,,,33.333333333333336,-0.339,-0.698,0.629
1970-01-01 00:00:00.000215846,1755598006929,19.81,-47.75,3.22,,,,,,33.333333333333336,-0.338,-0.698,0.628
1970-01-01 00:00:00.000215875,1755598006958,19.81,-47.75,3.21,,,,,,34.48275862068966,-0.338,-0.699,0.629
1970-01-01 00:00:00.000215905,1755598006988,19.83,-47.74,3.22,,,,,,33.333333333333336,-0.339,-0.698,0.629
1970-01-01 00:00:00.000215963,1755598007047,19.83,-47.76,3.21,,,,,,34.48275862068966,-0.339,-0.699,0.629
1970-01-01 00:00:00.000215993,1755598007076,19.85,-47.75,3.21,,,,,,33.333333333333336,-0.339,-0.699,0.628
1970-01-01 00:00:00.000216022,1755598007106,19.83,-47.75,3.21,,,,,,34.48275862068966,-0.338,-0.699,0.628
1970-01-01 00:00:00.000216052,1755598007135,19.84,-47.76,3.21,,,,,,33.333333333333336,-0.338,-0.699,0.628
1970-01-01 00:00:00.000216082,1755598007165,19.85,-47.75,3.21,,,,,,33.333333333333336,-0.338,-0.699,0.629
1970-01-01 00:00:00.000216111,1755598007195,19.85,-47.77,3.2,,,,,,34.48275862068966,-0.337,-0.698,0.628
1970-01-01 00:00:00.000216141,1755598007224,19.84,-47.78,3.19,,,,,,33.333333333333336,-0.339,-0.699,0.628
1970-01-01 00:00:00.000216170,1755598007253,19.85,-47.76,3.21,,,,,,34.48275862068966,-0.339,-0.7,0.629
1970-01-01 00:00:00.000216200,1755598007283,19.86,-47.75,3.22,,,,,,33.333333333333336,-0.339,-0.7,0.629
1970-01-01 00:00:00.000216229,1755598007312,19.84,-47.75,3.22,,,,,,34.48275862068966,-0.338,-0.699,0.628
1970-01-01 00:00:00.000216258,1755598007342,19.83,-47.72,3.21,,,,,,34.48275862068966,-0.338,-0.699,0.628
1970-01-01 00:00:00.000216288,1755598007371,19.83,-47.72,3.22,,,,,,33.333333333333336,-0.338,-0.7,0.629
1970-01-01 00:00:00.000216317,1755598007401,19.82,-47.72,3.23,,,,,,34.48275862068966,-0.338,-0.698,0.629
1970-01-01 00:00:00.000216347,1755598007430,19.81,-47.71,3.24,,,,,,33.333333333333336,-0.338,-0.698,0.629
1970-01-01 00:00:00.000216377,1755598007460,19.82,-47.71,3.23,,,,,,33.333333333333336,-0.338,-0.699,0.629
1970-01-01 00:00:00.000216406,1755598007490,19.81,-47.71,3.24,,,,,,34.48275862068966,-0.338,-0.699,0.629
1970-01-01 00:00:00.000216436,1755598007519,19.81,-47.69,3.25,,,,,,33.333333333333336,-0.338,-0.699,0.63
1970-01-01 00:00:00.000216466,1755598007549,19.82,-47.68,3.25,,,,,,33.333333333333336,-0.338,-0.697,0.629
1970-01-01 00:00:00.000216495,1755598007578,19.8,-47.7,3.24,,,,,,34.48275862068966,-0.337,-0.696,0.628
1970-01-01 00:00:00.000216525,1755598007608,19.79,-47.73,3.22,,,,,,33.333333333333336,-0.338,-0.698,0.628
1970-01-01 00:00:00.000216583,1755598007667,19.81,-47.73,3.24,,,,,,34.48275862068966,-0.338,-0.699,0.628
1970-01-01 00:00:00.000216613,1755598007696,19.78,-47.74,3.22,,,,,,33.333333333333336,-0.337,-0.698,0.628
1970-01-01 00:00:00.000216701,1755598007785,19.78,-47.7,3.27,,,,,,34.48275862068966,-0.337,-0.699,0.629
1970-01-01 00:00:00.000216731,1755598007814,19.77,-47.7,3.27,,,,,,33.333333333333336,-0.335,-0.697,0.629
1970-01-01 00:00:00.000216760,1755598007843,19.77,-47.71,3.25,,,,,,34.48275862068966,-0.335,-0.697,0.629
1970-01-01 00:00:00.000216819,1755598007902,19.74,-47.74,3.24,,,,,,34.48275862068966,-0.338,-0.701,0.63
1970-01-01 00:00:00.000216849,1755598007932,19.75,-47.71,3.28,,,,,,33.333333333333336,-0.339,-0.7,0.63
1970-01-01 00:00:00.000216878,1755598007962,19.75,-47.69,3.28,,,,,,34.48275862068966,-0.337,-0.698,0.631
1970-01-01 00:00:00.000216908,1755598007991,19.72,-47.7,3.26,,,,,,33.333333333333336,-0.335,-0.697,0.63
1970-01-01 00:00:00.000216937,1755598008021,19.74,-47.72,3.26,,,,,,34.48275862068966,-0.338,-0.7,0.63
1970-01-01 00:00:00.000216967,1755598008050,19.73,-47.7,3.28,,,,,,33.333333333333336,-0.338,-0.7,0.631
1970-01-01 00:00:00.000216996,1755598008080,19.7,-47.67,3.28,,,,,,34.48275862068966,-0.337,-0.698,0.63
1970-01-01 00:00:00.000217026,1755598008109,19.69,-47.68,3.26,,,,,,33.333333333333336,-0.335,-0.698,0.63
1970-01-01 00:00:00.000217055,1755598008139,19.7,-47.69,3.25,,,,,,34.48275862068966,-0.337,-0.699,0.631
1970-01-01 00:00:00.000217114,1755598008197,19.69,-47.65,3.28,,,,,,34.48275862068966,-0.335,-0.697,0.632
1970-01-01 00:00:00.000217144,1755598008227,19.69,-47.65,3.27,,,,,,33.333333333333336,-0.335,-0.697,0.632
1970-01-01 00:00:00.000217173,1755598008256,19.7,-47.66,3.28,,,,,,34.48275862068966,-0.336,-0.698,0.633
1970-01-01 00:00:00.000217203,1755598008286,19.68,-47.63,3.29,,,,,,33.333333333333336,-0.336,-0.697,0.632
1970-01-01 00:00:00.000217232,1755598008315,19.67,-47.63,3.28,,,,,,34.48275862068966,-0.335,-0.697,0.632
1970-01-01 00:00:00.000217261,1755598008345,19.68,-47.66,3.28,,,,,,34.48275862068966,-0.335,-0.698,0.632
1970-01-01 00:00:00.000217321,1755598008404,19.68,-47.63,3.3,,,,,,33.333333333333336,-0.336,-0.699,0.633
1970-01-01 00:00:00.000217350,1755598008434,19.67,-47.62,3.3,,,,,,34.48275862068966,-0.335,-0.698,0.632
1970-01-01 00:00:00.000217380,1755598008463,19.68,-47.62,3.3,,,,,,33.333333333333336,-0.337,-0.699,0.632
1970-01-01 00:00:00.000217409,1755598008493,19.68,-47.6,3.33,,,,,,34.48275862068966,-0.338,-0.7,0.633
1970-01-01 00:00:00.000217439,1755598008522,19.67,-47.55,3.36,,,,,,33.333333333333336,-0.335,-0.697,0.633
1970-01-01 00:00:00.000217469,1755598008552,19.68,-47.55,3.36,,,,,,33.333333333333336,-0.334,-0.696,0.632
1970-01-01 00:00:00.000217528,1755598008612,19.67,-47.58,3.34,,,,,,33.333333333333336,-0.336,-0.698,0.633
1970-01-01 00:00:00.000217558,1755598008641,19.68,-47.57,3.35,,,,,,33.333333333333336,-0.336,-0.697,0.633
1970-01-01 00:00:00.000217587,1755598008670,19.69,-47.58,3.35,,,,,,34.48275862068966,-0.336,-0.697,0.633
1970-01-01 00:00:00.000217617,1755598008700,19.68,-47.58,3.34,,,,,,33.333333333333336,-0.334,-0.696,0.633
1970-01-01 00:00:00.000217646,1755598008730,19.66,-47.59,3.33,,,,,,34.48275862068966,-0.335,-0.697,0.633
1970-01-01 00:00:00.000217676,1755598008759,19.65,-47.6,3.32,,,,,,33.333333333333336,-0.335,-0.698,0.633
1970-01-01 00:00:00.000217735,1755598008818,19.66,-47.61,3.31,,,,,,33.333333333333336,-0.333,-0.697,0.632
1970-01-01 00:00:00.000217764,1755598008847,19.65,-47.63,3.29,,,,,,34.48275862068966,-0.335,-0.699,0.632
1970-01-01 00:00:00.000217794,1755598008877,19.67,-47.61,3.31,,,,,,33.333333333333336,-0.337,-0.7,0.633
1970-01-01 00:00:00.000217853,1755598008936,19.66,-47.61,3.3,,,,,,33.333333333333336,-0.335,-0.696,0.632
1970-01-01 00:00:00.000217882,1755598008966,19.68,-47.63,3.32,,,,,,34.48275862068966,-0.337,-0.698,0.632
1970-01-01 00:00:00.000217912,1755598008995,19.69,-47.62,3.35,,,,,,33.333333333333336,-0.336,-0.699,0.632
1970-01-01 00:00:00.000217941,1755598009024,19.68,-47.62,3.34,,,,,,34.48275862068966,-0.332,-0.693,0.631
1970-01-01 00:00:00.000217971,1755598009054,19.67,-47.67,3.3,,,,,,33.333333333333336,-0.332,-0.695,0.632
1970-01-01 00:00:00.000218000,1755598009083,19.68,-47.67,3.31,,,,,,34.48275862068966,-0.336,-0.7,0.633
1970-01-01 00:00:00.000218029,1755598009113,19.66,-47.64,3.33,,,,,,34.48275862068966,-0.336,-0.7,0.632
1970-01-01 00:00:00.000218059,1755598009142,19.65,-47.63,3.35,,,,,,33.333333333333336,-0.334,-0.7,0.632
1970-01-01 00:00:00.000218088,1755598009172,19.67,-47.62,3.35,,,,,,34.48275862068966,-0.333,-0.698,0.632
1970-01-01 00:00:00.000218118,1755598009202,19.66,-47.62,3.34,,,,,,33.333333333333336,-0.334,-0.697,0.631
1970-01-01 00:00:00.000218148,1755598009231,19.65,-47.62,3.35,,,,,,33.333333333333336,-0.336,-0.698,0.631
1970-01-01 00:00:00.000218177,1755598009260,19.66,-47.6,3.36,,,,,,34.48275862068966,-0.334,-0.697,0.632
1970-01-01 00:00:00.000218206,1755598009290,19.66,-47.62,3.35,,,,,,34.48275862068966,-0.333,-0.696,0.631
1970-01-01 00:00:00.000218236,1755598009320,19.65,-47.63,3.34,,,,,,33.333333333333336,-0.334,-0.697,0.632
1970-01-01 00:00:00.000218266,1755598009349,19.66,-47.62,3.35,,,,,,33.333333333333336,-0.336,-0.699,0.632
1970-01-01 00:00:00.000218295,1755598009379,19.67,-47.59,3.38,,,,,,34.48275862068966,-0.336,-0.698,0.632
1970-01-01 00:00:00.000218325,1755598009408,19.68,-47.6,3.38,,,,,,33.333333333333336,-0.335,-0.696,0.631
1970-01-01 00:00:00.000218354,1755598009438,19.67,-47.63,3.36,,,,,,34.48275862068966,-0.334,-0.697,0.632
1970-01-01 00:00:00.000218384,1755598009467,19.68,-47.63,3.37,,,,,,33.333333333333336,-0.336,-0.699,0.634
1970-01-01 00:00:00.000218413,1755598009496,19.68,-47.58,3.4,,,,,,34.48275862068966,-0.337,-0.699,0.632
1970-01-01 00:00:00.000218443,1755598009526,19.66,-47.55,3.41,,,,,,33.333333333333336,-0.335,-0.698,0.631
1970-01-01 00:00:00.000218472,1755598009555,19.66,-47.55,3.4,,,,,,34.48275862068966,-0.334,-0.698,0.632
1970-01-01 00:00:00.000218502,1755598009585,19.67,-47.55,3.4,,,,,,33.333333333333336,-0.335,-0.697,0.632
1970-01-01 00:00:00.000218531,1755598009614,19.66,-47.53,3.41,,,,,,34.48275862068966,-0.336,-0.698,0.632
1970-01-01 00:00:00.000218560,1755598009644,19.66,-47.51,3.42,,,,,,34.48275862068966,-0.335,-0.698,0.632
1970-01-01 00:00:00.000218590,1755598009674,19.67,-47.51,3.43,,,,,,33.333333333333336,-0.335,-0.697,0.632
1970-01-01 00:00:00.000218620,1755598009703,19.67,-47.51,3.44,,,,,,33.333333333333336,-0.334,-0.697,0.633
1970-01-01 00:00:00.000218679,1755598009762,19.66,-47.52,3.44,,,,,,33.333333333333336,-0.335,-0.696,0.633
1970-01-01 00:00:00.000218738,1755598009821,19.68,-47.5,3.45,,,,,,34.48275862068966,-0.336,-0.697,0.634
1970-01-01 00:00:00.000218767,1755598009851,19.67,-47.49,3.46,,,,,,34.48275862068966,-0.336,-0.698,0.634
1970-01-01 00:00:00.000218797,1755598009881,19.66,-47.48,3.46,,,,,,33.333333333333336,-0.334,-0.696,0.633
1970-01-01 00:00:00.000218856,1755598009940,19.67,-47.46,3.48,,,,,,33.333333333333336,-0.337,-0.698,0.634
1970-01-01 00:00:00.000218886,1755598009970,19.65,-47.44,3.49,,,,,,33.333333333333336,-0.336,-0.696,0.634
1970-01-01 00:00:00.000218916,1755598009999,19.63,-47.43,3.47,,,,,,33.333333333333336,-0.334,-0.695,0.634
1970-01-01 00:00:00.000218945,1755598010029,19.66,-47.45,3.47,,,,,,34.48275862068966,-0.335,-0.696,0.635
1970-01-01 00:00:00.000218975,1755598010058,19.67,-47.44,3.5,,,,,,33.333333333333336,-0.336,-0.697,0.636
1970-01-01 00:00:00.000219004,1755598010088,19.66,-47.43,3.5,,,,,,34.48275862068966,-0.335,-0.696,0.635
1970-01-01 00:00:00.000219034,1755598010117,19.66,-47.43,3.5,,,,,,33.333333333333336,-0.335,-0.696,0.636
1970-01-01 00:00:00.000219063,1755598010146,19.65,-47.43,3.5,,,,,,34.48275862068966,-0.335,-0.697,0.636
1970-01-01 00:00:00.000219093,1755598010176,19.64,-47.42,3.51,,,,,,33.333333333333336,-0.336,-0.698,0.636
1970-01-01 00:00:00.000219122,1755598010206,19.65,-47.39,3.54,,,,,,34.48275862068966,-0.335,-0.695,0.636
1970-01-01 00:00:00.000219152,1755598010235,19.66,-47.38,3.53,,,,,,33.333333333333336,-0.333,-0.693,0.634
1970-01-01 00:00:00.000219181,1755598010265,19.64,-47.41,3.5,,,,,,34.48275862068966,-0.336,-0.694,0.635
1970-01-01 00:00:00.000219211,1755598010295,19.62,-47.4,3.5,,,,,,33.333333333333336,-0.336,-0.697,0.637
1970-01-01 00:00:00.000219241,1755598010324,19.65,-47.37,3.54,,,,,,33.333333333333336,-0.336,-0.697,0.637
1970-01-01 00:00:00.000219270,1755598010353,19.65,-47.35,3.56,,,,,,34.48275862068966,-0.336,-0.694,0.635
1970-01-01 00:00:00.000219300,1755598010383,19.63,-47.36,3.54,,,,,,33.333333333333336,-0.334,-0.693,0.635
1970-01-01 00:00:00.000219329,1755598010413,19.65,-47.37,3.54,,,,,,34.48275862068966,-0.336,-0.695,0.636
1970-01-01 00:00:00.000219359,1755598010442,19.66,-47.35,3.56,,,,,,33.333333333333336,-0.336,-0.695,0.637
1970-01-01 00:00:00.000219388,1755598010472,19.65,-47.35,3.57,,,,,,34.48275862068966,-0.335,-0.695,0.636
1970-01-01 00:00:00.000219417,1755598010501,19.66,-47.36,3.56,,,,,,34.48275862068966,-0.334,-0.694,0.635
1970-01-01 00:00:00.000219447,1755598010530,19.68,-47.38,3.56,,,,,,33.333333333333336,-0.335,-0.694,0.635
1970-01-01 00:00:00.000219476,1755598010560,19.67,-47.38,3.56,,,,,,34.48275862068966,-0.336,-0.695,0.636
1970-01-01 00:00:00.000219535,1755598010619,19.71,-47.38,3.57,,,,,,34.48275862068966,-0.335,-0.696,0.635
1970-01-01 00:00:00.000219565,1755598010648,19.71,-47.41,3.55,,,,,,33.333333333333336,-0.334,-0.696,0.635
1970-01-01 00:00:00.000219594,1755598010678,19.71,-47.42,3.55,,,,,,34.48275862068966,-0.335,-0.696,0.635
1970-01-01 00:00:00.000219624,1755598010708,19.73,-47.41,3.56,,,,,,33.333333333333336,-0.337,-0.696,0.635
1970-01-01 00:00:00.000219654,1755598010737,19.73,-47.39,3.57,,,,,,33.333333333333336,-0.338,-0.695,0.634
1970-01-01 00:00:00.000219683,1755598010767,19.7,-47.39,3.56,,,,,,34.48275862068966,-0.336,-0.696,0.635
1970-01-01 00:00:00.000219713,1755598010796,19.73,-47.39,3.58,,,,,,33.333333333333336,-0.336,-0.696,0.635
1970-01-01 00:00:00.000219742,1755598010825,19.73,-47.37,3.59,,,,,,34.48275862068966,-0.337,-0.697,0.635
1970-01-01 00:00:00.000219771,1755598010855,19.71,-47.37,3.59,,,,,,34.48275862068966,-0.335,-0.695,0.634
1970-01-01 00:00:00.000219801,1755598010885,19.72,-47.39,3.6,,,,,,33.333333333333336,-0.337,-0.695,0.634
1970-01-01 00:00:00.000219831,1755598010914,19.73,-47.38,3.62,,,,,,33.333333333333336,-0.337,-0.695,0.634
1970-01-01 00:00:00.000219860,1755598010943,19.7,-47.37,3.61,,,,,,34.48275862068966,-0.335,-0.696,0.634
1970-01-01 00:00:00.000219889,1755598010973,19.71,-47.37,3.61,,,,,,34.48275862068966,-0.335,-0.695,0.633
1970-01-01 00:00:00.000219919,1755598011002,19.72,-47.37,3.61,,,,,,33.333333333333336,-0.336,-0.694,0.633
1970-01-01 00:00:00.000219948,1755598011032,19.72,-47.38,3.61,,,,,,34.48275862068966,-0.336,-0.695,0.634
1970-01-01 00:00:00.000219978,1755598011061,19.71,-47.37,3.61,,,,,,33.333333333333336,-0.337,-0.697,0.634
1970-01-01 00:00:00.000220007,1755598011091,19.72,-47.37,3.62,,,,,,34.48275862068966,-0.336,-0.696,0.633
1970-01-01 00:00:00.000220036,1755598011120,19.73,-47.36,3.63,,,,,,34.48275862068966,-0.336,-0.695,0.634
1970-01-01 00:00:00.000220066,1755598011150,19.73,-47.36,3.62,,,,,,33.333333333333336,-0.337,-0.696,0.634
1970-01-01 00:00:00.000220096,1755598011179,19.73,-47.36,3.63,,,,,,33.333333333333336,-0.337,-0.696,0.634
1970-01-01 00:00:00.000220125,1755598011209,19.73,-47.36,3.63,,,,,,34.48275862068966,-0.336,-0.695,0.633
1970-01-01 00:00:00.000220214,1755598011297,19.73,-47.37,3.64,,,,,,33.333333333333336,-0.337,-0.697,0.633
1970-01-01 00:00:00.000220243,1755598011327,19.74,-47.37,3.64,,,,,,34.48275862068966,-0.335,-0.696,0.632
1970-01-01 00:00:00.000220273,1755598011357,19.76,-47.39,3.63,,,,,,33.333333333333336,-0.336,-0.696,0.632
1970-01-01 00:00:00.000220303,1755598011387,19.75,-47.39,3.63,,,,,,33.333333333333336,-0.338,-0.696,0.633
1970-01-01 00:00:00.000220323,1755598011406,19.74,-47.37,3.64,,,,,,50.0,-0.338,-0.695,0.634
1970-01-01 00:00:00.000220352,1755598011435,19.75,-47.37,3.64,,,,,,34.48275862068966,-0.337,-0.695,0.633
1970-01-01 00:00:00.000220381,1755598011465,19.75,-47.38,3.64,,,,,,34.48275862068966,-0.337,-0.696,0.633
1970-01-01 00:00:00.000220411,1755598011495,19.75,-47.37,3.65,,,,,,33.333333333333336,-0.337,-0.696,0.633
1970-01-01 00:00:00.000220441,1755598011524,19.75,-47.37,3.65,,,,,,33.333333333333336,-0.338,-0.696,0.634
1970-01-01 00:00:00.000220470,1755598011553,19.74,-47.36,3.65,,,,,,34.48275862068966,-0.336,-0.696,0.633
1970-01-01 00:00:00.000220499,1755598011583,19.76,-47.35,3.66,,,,,,34.48275862068966,-0.336,-0.695,0.632
1970-01-01 00:00:00.000220529,1755598011613,19.76,-47.36,3.65,,,,,,33.333333333333336,-0.336,-0.694,0.633
1970-01-01 00:00:00.000220559,1755598011643,19.75,-47.38,3.64,,,,,,33.333333333333336,-0.337,-0.694,0.633
1970-01-01 00:00:00.000220589,1755598011672,19.77,-47.4,3.65,,,,,,33.333333333333336,-0.339,-0.696,0.633
1970-01-01 00:00:00.000220618,1755598011702,19.78,-47.38,3.68,,,,,,34.48275862068966,-0.339,-0.697,0.634
1970-01-01 00:00:00.000220677,1755598011761,19.74,-47.36,3.65,,,,,,34.48275862068966,-0.334,-0.694,0.632
1970-01-01 00:00:00.000220736,1755598011820,19.74,-47.39,3.65,,,,,,34.48275862068966,-0.337,-0.696,0.633
1970-01-01 00:00:00.000220766,1755598011849,19.72,-47.37,3.65,,,,,,33.333333333333336,-0.336,-0.695,0.632
1970-01-01 00:00:00.000220795,1755598011879,19.74,-47.38,3.65,,,,,,34.48275862068966,-0.337,-0.696,0.632
1970-01-01 00:00:00.000220854,1755598011937,19.72,-47.36,3.68,,,,,,34.48275862068966,-0.335,-0.694,0.631
1970-01-01 00:00:00.000220884,1755598011967,19.74,-47.37,3.68,,,,,,33.333333333333336,-0.335,-0.693,0.63
1970-01-01 00:00:00.000220913,1755598011996,19.73,-47.41,3.66,,,,,,34.48275862068966,-0.336,-0.695,0.631
1970-01-01 00:00:00.000220942,1755598012026,19.73,-47.41,3.66,,,,,,34.48275862068966,-0.335,-0.694,0.631
1970-01-01 00:00:00.000220972,1755598012056,19.75,-47.41,3.67,,,,,,33.333333333333336,-0.337,-0.696,0.632
1970-01-01 00:00:00.000221002,1755598012085,19.75,-47.4,3.69,,,,,,33.333333333333336,-0.338,-0.696,0.632
1970-01-01 00:00:00.000221031,1755598012115,19.73,-47.39,3.69,,,,,,34.48275862068966,-0.334,-0.693,0.631
1970-01-01 00:00:00.000221061,1755598012144,19.76,-47.44,3.66,,,,,,33.333333333333336,-0.335,-0.695,0.63
1970-01-01 00:00:00.000221090,1755598012174,19.77,-47.46,3.66,,,,,,34.48275862068966,-0.338,-0.697,0.631
1970-01-01 00:00:00.000221149,1755598012233,19.74,-47.46,3.66,,,,,,34.48275862068966,-0.336,-0.696,0.63
