timestamp_ms,recv_timestamp_ms,pitch,roll,yaw,flex1,flex2,flex3,flex4,flex5,sampling_hz,accel_x,accel_y,accel_z
1970-01-01 00:00:00.000197792,1755597992015,27.3,-45.07,7.14,771.0,768.0,896.0,944.0,919.0,34.48275862068966,-0.463,-0.632,0.617
1970-01-01 00:00:00.000197822,1755597992017,26.83,-44.8,7.03,771.0,,,,,33.333333333333336,-0.459,-0.632,0.6
1970-01-01 00:00:00.000197852,1755597992019,26.86,-44.95,6.95,,,,,,33.333333333333336,-0.47,-0.642,0.608
1970-01-01 00:00:00.000197911,1755597992023,26.89,-44.82,7.25,,,,,,33.333333333333336,-0.46,-0.637,0.617
1970-01-01 00:00:00.000197941,1755597992025,27.02,-44.61,7.55,,,,,,33.333333333333336,-0.463,-0.644,0.63
1970-01-01 00:00:00.000197970,1755597992028,27.09,-44.42,7.7,,,,,,34.48275862068966,-0.458,-0.642,0.631
1970-01-01 00:00:00.000198000,1755597992029,27.05,-44.56,7.86,,,,,,33.333333333333336,-0.448,-0.634,0.624
1970-01-01 00:00:00.000198030,1755597992031,27.24,-44.44,8.11,,,,,,33.333333333333336,-0.466,-0.636,0.628
1970-01-01 00:00:00.000198059,1755597992034,27.58,-44.5,8.47,,,,,,34.48275862068966,-0.47,-0.635,0.628
1970-01-01 00:00:00.000198089,1755597992035,28.21,-44.7,8.78,,,,,,33.333333333333336,-0.472,-0.632,0.625
1970-01-01 00:00:00.000198177,1755597992042,29.35,-45.89,9.2,,,,,,34.48275862068966,-0.463,-0.619,0.593
1970-01-01 00:00:00.000198207,1755597992043,29.69,-46.56,9.22,,,,,,33.333333333333336,-0.484,-0.626,0.594
1970-01-01 00:00:00.000198266,1755597992047,30.19,-47.22,9.41,,,,,,34.48275862068966,-0.484,-0.632,0.594
1970-01-01 00:00:00.000198296,1755597992050,30.5,-47.34,9.44,,,,,,33.333333333333336,-0.485,-0.636,0.591
1970-01-01 00:00:00.000198326,1755597992052,30.69,-47.83,9.16,,,,,,33.333333333333336,-0.488,-0.63,0.573
1970-01-01 00:00:00.000198355,1755597992054,30.67,-48.46,8.88,,,,,,34.48275862068966,-0.504,-0.635,0.567
1970-01-01 00:00:00.000198385,1755597992056,30.76,-48.56,8.82,,,,,,33.333333333333336,-0.521,-0.655,0.576
1970-01-01 00:00:00.000198414,1755597992058,30.83,-48.59,8.72,,,,,,34.48275862068966,-0.505,-0.651,0.558
1970-01-01 00:00:00.000198444,1755597992060,30.9,-48.76,8.55,,,,,,33.333333333333336,-0.516,-0.652,0.552
1970-01-01 00:00:00.000198473,1755597992062,31.04,-48.55,8.71,,,,,,34.48275862068966,-0.531,-0.662,0.558
1970-01-01 00:00:00.000198503,1755597992064,31.58,-47.92,9.21,,,,,,33.333333333333336,-0.533,-0.662,0.558
1970-01-01 00:00:00.000198533,1755597992066,32.12,-47.92,9.36,,,,,,33.333333333333336,-0.538,-0.656,0.541
1970-01-01 00:00:00.000198562,1755597992067,32.2,-47.76,9.6,,,,,,34.48275862068966,-0.538,-0.65,0.528
1970-01-01 00:00:00.000198591,1755597992070,32.26,-47.62,9.75,,,,,,34.48275862068966,-0.536,-0.649,0.524
1970-01-01 00:00:00.000198621,1755597992072,32.31,-47.62,9.79,,,,,,33.333333333333336,-0.539,-0.651,0.526
1970-01-01 00:00:00.000198650,1755597992074,32.25,-47.67,9.86,,,,,,34.48275862068966,-0.537,-0.652,0.535
1970-01-01 00:00:00.000198680,1755597992076,32.3,-47.43,9.95,,,,,,33.333333333333336,-0.53,-0.649,0.539
1970-01-01 00:00:00.000198700,1755597992078,32.32,-47.34,9.93,,,,,,50.0,-0.534,-0.647,0.537
1970-01-01 00:00:00.000198788,1755597992084,32.64,-47.87,10.1,,,,,,34.48275862068966,-0.54,-0.646,0.533
1970-01-01 00:00:00.000198847,1755597992088,32.49,-48.27,9.89,,,,,,34.48275862068966,-0.535,-0.643,0.529
1970-01-01 00:00:00.000198926,1755597992094,32.46,-48.92,9.53,,,,,,50.0,-0.552,-0.637,0.529
1970-01-01 00:00:00.000198956,1755597992096,32.1,-48.95,9.32,,,,,,33.333333333333336,-0.556,-0.636,0.529
1970-01-01 00:00:00.000199292,1755597992120,27.83,-46.27,7.26,,,,,,34.48275862068966,-0.496,-0.645,0.595
1970-01-01 00:00:00.000199322,1755597992122,27.75,-46.06,7.21,,,,,,33.333333333333336,-0.497,-0.649,0.603
1970-01-01 00:00:00.000199351,1755597992124,27.89,-46.05,7.15,,,,,,34.48275862068966,-0.483,-0.645,0.615
1970-01-01 00:00:00.000199381,1755597992126,28.43,-45.76,7.75,,,,,,33.333333333333336,-0.484,-0.643,0.614
1970-01-01 00:00:00.000199410,1755597992128,29.01,-45.38,8.08,,,,,,34.48275862068966,-0.47,-0.65,0.609
1970-01-01 00:00:00.000199440,1755597992131,29.25,-45.92,7.66,,,,,,33.333333333333336,-0.446,-0.632,0.582
1970-01-01 00:00:00.000199469,1755597992133,29.04,-47.4,6.83,,,,,,34.48275862068966,-0.452,-0.627,0.556
1970-01-01 00:00:00.000199499,1755597992135,28.8,-49.03,5.95,,,,,,33.333333333333336,-0.467,-0.645,0.551
1970-01-01 00:00:00.000199529,1755597992137,28.52,-50.33,5.38,,,,,,33.333333333333336,-0.466,-0.671,0.564
1970-01-01 00:00:00.000199558,1755597992139,28.21,-51.06,5.08,,,,,,34.48275862068966,-0.465,-0.697,0.576
1970-01-01 00:00:00.000199588,1755597992141,28.07,-51.2,4.98,,,,,,33.333333333333336,-0.47,-0.698,0.581
1970-01-01 00:00:00.000199617,1755597992143,27.91,-50.86,5.21,,,,,,34.48275862068966,-0.452,-0.696,0.579
1970-01-01 00:00:00.000199676,1755597992147,27.87,-50.43,5.19,,,,,,34.48275862068966,-0.44,-0.693,0.561
1970-01-01 00:00:00.000199735,1755597992151,27.29,-50.06,4.77,,,,,,34.48275862068966,-0.429,-0.709,0.55
1970-01-01 00:00:00.000199853,1755597992159,27.03,-48.73,4.31,,,,,,34.48275862068966,-0.424,-0.715,0.565
1970-01-01 00:00:00.000199913,1755597992163,26.88,-47.95,4.19,,,,,,33.333333333333336,-0.412,-0.717,0.569
1970-01-01 00:00:00.000199942,1755597992165,26.82,-47.85,4.07,,,,,,34.48275862068966,-0.409,-0.713,0.574
1970-01-01 00:00:00.000199972,1755597992167,26.92,-47.62,3.69,,,,,,33.333333333333336,-0.408,-0.702,0.575
1970-01-01 00:00:00.000200001,1755597992169,26.44,-47.69,3.54,,,,,,34.48275862068966,-0.401,-0.695,0.579
1970-01-01 00:00:00.000200031,1755597992172,26.3,-47.81,3.43,,,,,,33.333333333333336,-0.397,-0.704,0.591
1970-01-01 00:00:00.000200061,1755597992173,26.38,-47.82,3.46,,,,,,33.333333333333336,-0.403,-0.711,0.599
1970-01-01 00:00:00.000200090,1755597992176,26.36,-47.61,3.53,,,,,,34.48275862068966,-0.411,-0.707,0.597
1970-01-01 00:00:00.000200120,1755597992178,25.97,-47.33,3.58,,,,,,33.333333333333336,-0.409,-0.706,0.598
1970-01-01 00:00:00.000200149,1755597992180,25.75,-47.09,3.73,,,,,,34.48275862068966,-0.406,-0.703,0.6
1970-01-01 00:00:00.000200178,1755597992182,25.78,-46.91,3.96,,,,,,34.48275862068966,-0.402,-0.703,0.604
1970-01-01 00:00:00.000200208,1755597992184,25.67,-46.77,4.05,,,,,,33.333333333333336,-0.396,-0.698,0.604
1970-01-01 00:00:00.000200238,1755597992186,25.28,-46.72,3.99,,,,,,33.333333333333336,-0.384,-0.681,0.601
1970-01-01 00:00:00.000200267,1755597992188,25.2,-46.83,3.91,,,,,,34.48275862068966,-0.378,-0.675,0.607
1970-01-01 00:00:00.000200297,1755597992190,25.22,-46.91,3.76,,,,,,33.333333333333336,-0.378,-0.679,0.613
1970-01-01 00:00:00.000200326,1755597992192,24.97,-46.85,3.54,,,,,,34.48275862068966,-0.378,-0.681,0.618
1970-01-01 00:00:00.000200356,1755597992193,24.83,-46.79,3.46,,,,,,33.333333333333336,-0.378,-0.683,0.623
1970-01-01 00:00:00.000200385,1755597992196,24.98,-46.65,3.53,,,,,,34.48275862068966,-0.382,-0.679,0.622
1970-01-01 00:00:00.000200415,1755597992198,25.01,-46.56,3.52,,,,,,33.333333333333336,-0.383,-0.675,0.621
1970-01-01 00:00:00.000200444,1755597992199,24.75,-46.63,3.34,,,,,,34.48275862068966,-0.374,-0.669,0.618
1970-01-01 00:00:00.000200474,1755597992202,24.74,-46.81,3.19,,,,,,33.333333333333336,-0.374,-0.672,0.619
1970-01-01 00:00:00.000200503,1755597992203,24.8,-46.98,3.06,,,,,,34.48275862068966,-0.38,-0.681,0.621
1970-01-01 00:00:00.000200533,1755597992205,24.64,-47.03,2.99,,,,,,33.333333333333336,-0.382,-0.683,0.622
1970-01-01 00:00:00.000200563,1755597992207,24.55,-47.1,3.0,,,,,,33.333333333333336,-0.376,-0.68,0.622
1970-01-01 00:00:00.000200584,1755597992209,24.55,-47.16,2.99,,,,,,47.61904761904762,-0.37,-0.679,0.619
1970-01-01 00:00:00.000200613,1755597992212,24.52,-47.31,2.88,,,,,,34.48275862068966,-0.369,-0.682,0.618
1970-01-01 00:00:00.000200643,1755597992213,24.35,-47.51,2.74,,,,,,33.333333333333336,-0.366,-0.684,0.617
1970-01-01 00:00:00.000200672,1755597992216,24.25,-47.63,2.7,,,,,,34.48275862068966,-0.364,-0.688,0.618
1970-01-01 00:00:00.000200702,1755597992218,24.35,-47.72,2.7,,,,,,33.333333333333336,-0.366,-0.692,0.618
1970-01-01 00:00:00.000200761,1755597992222,24.15,-47.82,2.6,,,,,,33.333333333333336,-0.374,-0.702,0.618
1970-01-01 00:00:00.000200790,1755597992223,24.13,-47.81,2.62,,,,,,34.48275862068966,-0.371,-0.703,0.618
1970-01-01 00:00:00.000200820,1755597992225,24.11,-47.78,2.65,,,,,,33.333333333333336,-0.371,-0.702,0.617
1970-01-01 00:00:00.000200849,1755597992228,24.05,-47.81,2.67,,,,,,34.48275862068966,-0.37,-0.7,0.616
1970-01-01 00:00:00.000200879,1755597992230,24.03,-47.78,2.7,,,,,,33.333333333333336,-0.368,-0.701,0.615
1970-01-01 00:00:00.000200909,1755597992232,24.02,-47.8,2.7,,,,,,33.333333333333336,-0.367,-0.696,0.612
1970-01-01 00:00:00.000200938,1755597992234,23.96,-47.86,2.66,,,,,,34.48275862068966,-0.367,-0.694,0.611
1970-01-01 00:00:00.000200968,1755597992236,23.92,-47.95,2.63,,,,,,33.333333333333336,-0.371,-0.698,0.614
1970-01-01 00:00:00.000200997,1755597992238,23.85,-47.96,2.65,,,,,,34.48275862068966,-0.37,-0.699,0.615
1970-01-01 00:00:00.000201027,1755597992241,23.81,-47.97,2.7,,,,,,33.333333333333336,-0.366,-0.697,0.613
1970-01-01 00:00:00.000201056,1755597992243,23.84,-47.99,2.73,,,,,,34.48275862068966,-0.365,-0.697,0.613
1970-01-01 00:00:00.000201086,1755597992245,23.82,-48.04,2.71,,,,,,33.333333333333336,-0.367,-0.7,0.613
1970-01-01 00:00:00.000201115,1755597992247,23.72,-48.07,2.69,,,,,,34.48275862068966,-0.366,-0.7,0.613
1970-01-01 00:00:00.000201144,1755597992249,23.71,-48.08,2.69,,,,,,34.48275862068966,-0.367,-0.702,0.612
1970-01-01 00:00:00.000201174,1755597992257,23.71,-48.07,2.72,,,,,,33.333333333333336,-0.369,-0.702,0.612
1970-01-01 00:00:00.000201194,1755597992277,23.65,-48.07,2.73,,,,,,50.0,-0.369,-0.702,0.613
1970-01-01 00:00:00.000201224,1755597992307,23.61,-48.08,2.73,,,,,,33.333333333333336,-0.369,-0.7,0.613
1970-01-01 00:00:00.000201253,1755597992336,23.62,-48.1,2.74,,,,,,34.48275862068966,-0.369,-0.7,0.612
1970-01-01 00:00:00.000201283,1755597992365,23.59,-48.12,2.77,,,,,,33.333333333333336,-0.369,-0.702,0.612
1970-01-01 00:00:00.000201312,1755597992395,23.58,-48.13,2.81,,,,,,34.48275862068966,-0.37,-0.702,0.611
1970-01-01 00:00:00.000201342,1755597992425,23.55,-48.11,2.85,,,,,,33.333333333333336,-0.372,-0.705,0.611
1970-01-01 00:00:00.000201371,1755597992454,23.48,-48.12,2.85,,,,,,34.48275862068966,-0.37,-0.704,0.61
1970-01-01 00:00:00.000201401,1755597992484,23.39,-48.12,2.84,,,,,,33.333333333333336,-0.369,-0.701,0.61
1970-01-01 00:00:00.000201431,1755597992514,23.36,-48.12,2.83,,,,,,33.333333333333336,-0.368,-0.702,0.611
1970-01-01 00:00:00.000201460,1755597992543,23.31,-48.12,2.81,,,,,,34.48275862068966,-0.369,-0.703,0.611
1970-01-01 00:00:00.000201490,1755597992573,23.21,-48.12,2.8,,,,,,33.333333333333336,-0.37,-0.701,0.611
1970-01-01 00:00:00.000201520,1755597992603,23.14,-48.09,2.8,,,,,,33.333333333333336,-0.368,-0.699,0.611
1970-01-01 00:00:00.000201549,1755597992632,23.12,-48.11,2.78,,,,,,34.48275862068966,-0.368,-0.7,0.611
1970-01-01 00:00:00.000201579,1755597992662,23.04,-48.13,2.77,,,,,,33.333333333333336,-0.37,-0.701,0.611
1970-01-01 00:00:00.000201609,1755597992692,22.99,-48.11,2.78,,,,,,33.333333333333336,-0.368,-0.702,0.611
1970-01-01 00:00:00.000201638,1755597992721,22.94,-48.1,2.78,,,,,,34.48275862068966,-0.365,-0.698,0.61
1970-01-01 00:00:00.000201668,1755597992751,22.93,-48.16,2.76,,,,,,33.333333333333336,-0.367,-0.7,0.612
1970-01-01 00:00:00.000201698,1755597992780,22.84,-48.15,2.73,,,,,,33.333333333333336,-0.367,-0.702,0.612
1970-01-01 00:00:00.000201727,1755597992810,22.77,-48.1,2.73,,,,,,34.48275862068966,-0.367,-0.703,0.613
1970-01-01 00:00:00.000201756,1755597992840,22.77,-48.09,2.74,,,,,,34.48275862068966,-0.366,-0.7,0.613
1970-01-01 00:00:00.000201777,1755597992859,22.74,-48.1,2.73,,,,,,47.61904761904762,-0.368,-0.699,0.613
1970-01-01 00:00:00.000201806,1755597992889,22.66,-48.09,2.72,,,,,,34.48275862068966,-0.367,-0.701,0.615
1970-01-01 00:00:00.000201835,1755597992918,22.65,-48.05,2.76,,,,,,34.48275862068966,-0.365,-0.7,0.615
1970-01-01 00:00:00.000201865,1755597992948,22.64,-48.02,2.76,,,,,,33.333333333333336,-0.363,-0.698,0.614
1970-01-01 00:00:00.000201894,1755597992977,22.57,-48.04,2.73,,,,,,34.48275862068966,-0.36,-0.697,0.614
1970-01-01 00:00:00.000201924,1755597993007,22.55,-48.05,2.72,,,,,,33.333333333333336,-0.36,-0.698,0.614
1970-01-01 00:00:00.000201954,1755597993036,22.57,-48.03,2.73,,,,,,33.333333333333336,-0.363,-0.7,0.616
1970-01-01 00:00:00.000201983,1755597993066,22.52,-48.03,2.73,,,,,,34.48275862068966,-0.362,-0.699,0.615
1970-01-01 00:00:00.000202012,1755597993095,22.49,-48.03,2.72,,,,,,34.48275862068966,-0.362,-0.698,0.615
1970-01-01 00:00:00.000202042,1755597993125,22.52,-48.02,2.73,,,,,,33.333333333333336,-0.364,-0.699,0.616
1970-01-01 00:00:00.000202071,1755597993154,22.49,-48.01,2.74,,,,,,34.48275862068966,-0.362,-0.698,0.616
1970-01-01 00:00:00.000202101,1755597993184,22.41,-48.01,2.71,,,,,,33.333333333333336,-0.362,-0.697,0.615
1970-01-01 00:00:00.000202130,1755597993213,22.39,-48.03,2.7,,,,,,34.48275862068966,-0.363,-0.698,0.616
1970-01-01 00:00:00.000202160,1755597993243,22.38,-48.0,2.74,,,,,,33.333333333333336,-0.361,-0.698,0.616
1970-01-01 00:00:00.000202189,1755597993273,22.36,-47.99,2.72,,,,,,34.48275862068966,-0.36,-0.697,0.616
1970-01-01 00:00:00.000202219,1755597993302,22.31,-47.99,2.67,,,,,,33.333333333333336,-0.36,-0.697,0.615
1970-01-01 00:00:00.000202249,1755597993332,22.25,-48.0,2.63,,,,,,33.333333333333336,-0.361,-0.699,0.616
1970-01-01 00:00:00.000202278,1755597993361,22.23,-47.99,2.65,,,,,,34.48275862068966,-0.361,-0.699,0.616
1970-01-01 00:00:00.000202308,1755597993391,22.23,-47.96,2.67,,,,,,33.333333333333336,-0.363,-0.699,0.617
1970-01-01 00:00:00.000202367,1755597993450,22.09,-47.95,2.62,,,,,,33.333333333333336,-0.358,-0.698,0.616
1970-01-01 00:00:00.000202396,1755597993479,22.11,-47.95,2.63,,,,,,34.48275862068966,-0.359,-0.698,0.616
1970-01-01 00:00:00.000202426,1755597993508,22.1,-47.94,2.63,,,,,,33.333333333333336,-0.359,-0.697,0.616
1970-01-01 00:00:00.000202455,1755597993538,22.02,-47.96,2.61,,,,,,34.48275862068966,-0.36,-0.698,0.617
1970-01-01 00:00:00.000202485,1755597993567,22.01,-47.93,2.64,,,,,,33.333333333333336,-0.358,-0.699,0.618
1970-01-01 00:00:00.000202514,1755597993597,22.01,-47.92,2.63,,,,,,34.48275862068966,-0.358,-0.698,0.617
1970-01-01 00:00:00.000202544,1755597993626,21.97,-47.93,2.61,,,,,,33.333333333333336,-0.357,-0.697,0.618
1970-01-01 00:00:00.000202573,1755597993656,21.94,-47.93,2.61,,,,,,34.48275862068966,-0.358,-0.698,0.619
1970-01-01 00:00:00.000202602,1755597993685,21.91,-47.92,2.6,,,,,,34.48275862068966,-0.357,-0.697,0.618
1970-01-01 00:00:00.000202632,1755597993715,21.87,-47.92,2.59,,,,,,33.333333333333336,-0.357,-0.696,0.617
1970-01-01 00:00:00.000202691,1755597993774,21.82,-47.89,2.6,,,,,,33.333333333333336,-0.359,-0.7,0.619
1970-01-01 00:00:00.000202720,1755597993803,21.77,-47.86,2.6,,,,,,34.48275862068966,-0.357,-0.698,0.619
1970-01-01 00:00:00.000202750,1755597993833,21.74,-47.86,2.6,,,,,,33.333333333333336,-0.356,-0.697,0.619
1970-01-01 00:00:00.000202779,1755597993862,21.71,-47.85,2.6,,,,,,34.48275862068966,-0.355,-0.696,0.619
1970-01-01 00:00:00.000202809,1755597993892,21.69,-47.86,2.6,,,,,,33.333333333333336,-0.355,-0.696,0.619
1970-01-01 00:00:00.000202838,1755597993921,21.68,-47.86,2.59,,,,,,34.48275862068966,-0.358,-0.696,0.619
1970-01-01 00:00:00.000202868,1755597993951,21.64,-47.85,2.59,,,,,,33.333333333333336,-0.358,-0.698,0.62
1970-01-01 00:00:00.000202897,1755597993980,21.64,-47.83,2.61,,,,,,34.48275862068966,-0.356,-0.698,0.62
1970-01-01 00:00:00.000202927,1755597994010,21.62,-47.8,2.62,,,,,,33.333333333333336,-0.355,-0.695,0.619
1970-01-01 00:00:00.000202956,1755597994039,21.59,-47.84,2.59,,,,,,34.48275862068966,-0.355,-0.694,0.62
1970-01-01 00:00:00.000202986,1755597994069,21.58,-47.88,2.58,,,,,,33.333333333333336,-0.354,-0.694,0.622
1970-01-01 00:00:00.000203015,1755597994098,21.58,-47.86,2.58,,,,,,34.48275862068966,-0.355,-0.696,0.622
1970-01-01 00:00:00.000203075,1755597994157,21.52,-47.89,2.58,,,,,,33.333333333333336,-0.354,-0.695,0.622
1970-01-01 00:00:00.000203104,1755597994187,21.51,-47.89,2.56,,,,,,34.48275862068966,-0.353,-0.694,0.622
1970-01-01 00:00:00.000203134,1755597994216,21.51,-47.95,2.54,,,,,,33.333333333333336,-0.353,-0.695,0.622
1970-01-01 00:00:00.000203163,1755597994246,21.51,-47.97,2.55,,,,,,34.48275862068966,-0.355,-0.698,0.621
1970-01-01 00:00:00.000203192,1755597994276,21.49,-47.97,2.55,,,,,,34.48275862068966,-0.354,-0.698,0.62
1970-01-01 00:00:00.000203222,1755597994305,21.48,-48.01,2.52,,,,,,33.333333333333336,-0.354,-0.697,0.62
1970-01-01 00:00:00.000203252,1755597994335,21.46,-48.04,2.49,,,,,,33.333333333333336,-0.354,-0.696,0.621
1970-01-01 00:00:00.000203282,1755597994365,21.47,-48.04,2.48,,,,,,33.333333333333336,-0.356,-0.699,0.622
1970-01-01 00:00:00.000203311,1755597994394,21.46,-48.03,2.5,,,,,,34.48275862068966,-0.357,-0.7,0.622
1970-01-01 00:00:00.000203341,1755597994424,21.44,-48.03,2.5,,,,,,33.333333333333336,-0.355,-0.697,0.62
1970-01-01 00:00:00.000203370,1755597994453,21.46,-48.06,2.48,,,,,,34.48275862068966,-0.354,-0.697,0.62
1970-01-01 00:00:00.000203400,1755597994483,21.45,-48.07,2.48,,,,,,33.333333333333336,-0.355,-0.698,0.621
1970-01-01 00:00:00.000203429,1755597994512,21.43,-48.06,2.48,,,,,,34.48275862068966,-0.354,-0.699,0.621
1970-01-01 00:00:00.000203459,1755597994542,21.45,-48.04,2.48,,,,,,33.333333333333336,-0.354,-0.7,0.622
1970-01-01 00:00:00.000203488,1755597994571,21.47,-48.06,2.5,,,,,,34.48275862068966,-0.354,-0.7,0.622
