timestamp_ms,recv_timestamp_ms,pitch,roll,yaw,flex1,flex2,flex3,flex4,flex5,sampling_hz,accel_x,accel_y,accel_z
1970-01-01 00:00:00.000221179,1755598013564,19.76,-47.49,3.65,770.0,762.0,885.0,949.0,921.0,33.333333333333336,-0.336,-0.696,0.629
1970-01-01 00:00:00.000221209,1755598013566,19.75,-47.5,3.65,,,,,,33.333333333333336,-0.337,-0.697,0.63
1970-01-01 00:00:00.000221238,1755598013567,19.75,-47.5,3.66,,,,,,34.48275862068966,-0.337,-0.697,0.631
1970-01-01 00:00:00.000221268,1755598013570,19.75,-47.49,3.65,,,,,,33.333333333333336,-0.335,-0.697,0.63
1970-01-01 00:00:00.000221297,1755598013572,19.75,-47.51,3.65,,,,,,34.48275862068966,-0.335,-0.698,0.629
1970-01-01 00:00:00.000221326,1755598013574,19.75,-47.52,3.65,,,,,,34.48275862068966,-0.336,-0.697,0.629
1970-01-01 00:00:00.000221356,1755598013576,19.73,-47.52,3.64,,,,,,33.333333333333336,-0.336,-0.697,0.631
1970-01-01 00:00:00.000221386,1755598013578,19.73,-47.51,3.64,,,,,,33.333333333333336,-0.336,-0.697,0.629
1970-01-01 00:00:00.000221415,1755598013580,19.73,-47.53,3.64,,,,,,34.48275862068966,-0.336,-0.696,0.628
1970-01-01 00:00:00.000221445,1755598013582,19.71,-47.56,3.61,,,,,,33.333333333333336,-0.335,-0.698,0.63
1970-01-01 00:00:00.000221474,1755598013584,19.69,-47.55,3.6,,,,,,34.48275862068966,-0.336,-0.699,0.631
1970-01-01 00:00:00.000221504,1755598013586,19.7,-47.53,3.63,,,,,,33.333333333333336,-0.336,-0.699,0.63
1970-01-01 00:00:00.000221534,1755598013589,19.67,-47.52,3.62,,,,,,33.333333333333336,-0.334,-0.698,0.629
1970-01-01 00:00:00.000221563,1755598013591,19.65,-47.53,3.6,,,,,,34.48275862068966,-0.332,-0.696,0.629
1970-01-01 00:00:00.000221593,1755598013593,19.66,-47.53,3.61,,,,,,33.333333333333336,-0.334,-0.698,0.631
1970-01-01 00:00:00.000221652,1755598013597,19.62,-47.49,3.62,,,,,,33.333333333333336,-0.334,-0.698,0.631
1970-01-01 00:00:00.000221681,1755598013599,19.61,-47.47,3.63,,,,,,34.48275862068966,-0.333,-0.698,0.631
1970-01-01 00:00:00.000221711,1755598013601,19.63,-47.48,3.64,,,,,,33.333333333333336,-0.333,-0.697,0.631
1970-01-01 00:00:00.000221740,1755598013603,19.63,-47.48,3.65,,,,,,34.48275862068966,-0.335,-0.696,0.631
1970-01-01 00:00:00.000221770,1755598013606,19.61,-47.49,3.64,,,,,,33.333333333333336,-0.335,-0.697,0.631
1970-01-01 00:00:00.000221799,1755598013607,19.61,-47.49,3.64,,,,,,34.48275862068966,-0.333,-0.696,0.631
1970-01-01 00:00:00.000221829,1755598013610,19.63,-47.49,3.65,,,,,,33.333333333333336,-0.334,-0.697,0.631
1970-01-01 00:00:00.000221858,1755598013612,19.62,-47.49,3.66,,,,,,34.48275862068966,-0.333,-0.697,0.631
1970-01-01 00:00:00.000221888,1755598013614,19.6,-47.48,3.67,,,,,,33.333333333333336,-0.332,-0.697,0.63
1970-01-01 00:00:00.000221917,1755598013616,19.62,-47.49,3.67,,,,,,34.48275862068966,-0.332,-0.697,0.63
1970-01-01 00:00:00.000221947,1755598013617,19.62,-47.5,3.68,,,,,,33.333333333333336,-0.335,-0.697,0.631
1970-01-01 00:00:00.000222006,1755598013622,19.61,-47.45,3.7,,,,,,33.333333333333336,-0.332,-0.698,0.631
1970-01-01 00:00:00.000222036,1755598013625,19.62,-47.45,3.7,,,,,,33.333333333333336,-0.332,-0.697,0.63
1970-01-01 00:00:00.000222065,1755598013626,19.61,-47.47,3.69,,,,,,34.48275862068966,-0.334,-0.697,0.631
1970-01-01 00:00:00.000222095,1755598013629,19.61,-47.44,3.72,,,,,,33.333333333333336,-0.334,-0.697,0.633
1970-01-01 00:00:00.000222124,1755598013630,19.63,-47.43,3.74,,,,,,34.48275862068966,-0.333,-0.696,0.631
1970-01-01 00:00:00.000222154,1755598013633,19.61,-47.44,3.73,,,,,,33.333333333333336,-0.331,-0.694,0.629
1970-01-01 00:00:00.000222183,1755598013635,19.62,-47.46,3.72,,,,,,34.48275862068966,-0.334,-0.696,0.631
1970-01-01 00:00:00.000222213,1755598013637,19.63,-47.46,3.73,,,,,,33.333333333333336,-0.335,-0.697,0.632
1970-01-01 00:00:00.000222242,1755598013639,19.61,-47.44,3.74,,,,,,34.48275862068966,-0.334,-0.697,0.633
1970-01-01 00:00:00.000222271,1755598013640,19.62,-47.41,3.77,,,,,,34.48275862068966,-0.333,-0.696,0.632
1970-01-01 00:00:00.000222301,1755598013642,19.63,-47.4,3.78,,,,,,33.333333333333336,-0.333,-0.695,0.632
1970-01-01 00:00:00.000222330,1755598013644,19.62,-47.4,3.78,,,,,,34.48275862068966,-0.334,-0.696,0.632
1970-01-01 00:00:00.000222360,1755598013647,19.62,-47.4,3.8,,,,,,33.333333333333336,-0.335,-0.696,0.633
1970-01-01 00:00:00.000222390,1755598013649,19.62,-47.39,3.8,,,,,,33.333333333333336,-0.334,-0.695,0.633
1970-01-01 00:00:00.000222410,1755598013651,19.62,-47.39,3.81,,,,,,50.0,-0.334,-0.695,0.632
1970-01-01 00:00:00.000222439,1755598013653,19.61,-47.39,3.8,,,,,,34.48275862068966,-0.335,-0.696,0.633
1970-01-01 00:00:00.000222469,1755598013655,19.61,-47.39,3.8,,,,,,33.333333333333336,-0.334,-0.695,0.633
1970-01-01 00:00:00.000222498,1755598013656,19.6,-47.39,3.8,,,,,,34.48275862068966,-0.334,-0.694,0.633
1970-01-01 00:00:00.000222528,1755598013659,19.6,-47.4,3.8,,,,,,33.333333333333336,-0.334,-0.694,0.634
1970-01-01 00:00:00.000222557,1755598013661,19.62,-47.41,3.79,,,,,,34.48275862068966,-0.334,-0.695,0.634
1970-01-01 00:00:00.000222587,1755598013670,19.62,-47.41,3.81,,,,,,33.333333333333336,-0.336,-0.696,0.635
1970-01-01 00:00:00.000222616,1755598013700,19.62,-47.39,3.82,,,,,,34.48275862068966,-0.336,-0.697,0.635
1970-01-01 00:00:00.000222646,1755598013729,19.62,-47.37,3.83,,,,,,33.333333333333336,-0.334,-0.696,0.635
1970-01-01 00:00:00.000222675,1755598013758,19.64,-47.36,3.82,,,,,,34.48275862068966,-0.335,-0.695,0.634
1970-01-01 00:00:00.000222734,1755598013817,19.62,-47.36,3.82,,,,,,33.333333333333336,-0.334,-0.696,0.636
1970-01-01 00:00:00.000222763,1755598013847,19.63,-47.35,3.84,,,,,,34.48275862068966,-0.335,-0.696,0.636
1970-01-01 00:00:00.000222793,1755598013876,19.61,-47.33,3.84,,,,,,33.333333333333336,-0.334,-0.695,0.635
1970-01-01 00:00:00.000222822,1755598013906,19.6,-47.34,3.83,,,,,,34.48275862068966,-0.334,-0.695,0.635
1970-01-01 00:00:00.000222852,1755598013935,19.61,-47.34,3.84,,,,,,33.333333333333336,-0.335,-0.695,0.636
1970-01-01 00:00:00.000222881,1755598013965,19.62,-47.33,3.86,,,,,,34.48275862068966,-0.335,-0.695,0.636
1970-01-01 00:00:00.000222911,1755598013994,19.61,-47.32,3.86,,,,,,33.333333333333336,-0.334,-0.694,0.635
1970-01-01 00:00:00.000222940,1755598014024,19.62,-47.33,3.85,,,,,,34.48275862068966,-0.334,-0.695,0.636
1970-01-01 00:00:00.000222970,1755598014053,19.62,-47.32,3.87,,,,,,33.333333333333336,-0.335,-0.695,0.636
1970-01-01 00:00:00.000222999,1755598014083,19.62,-47.31,3.88,,,,,,34.48275862068966,-0.337,-0.695,0.637
1970-01-01 00:00:00.000223029,1755598014112,19.62,-47.3,3.89,,,,,,33.333333333333336,-0.335,-0.694,0.637
1970-01-01 00:00:00.000223059,1755598014142,19.63,-47.29,3.89,,,,,,33.333333333333336,-0.335,-0.694,0.636
1970-01-01 00:00:00.000223088,1755598014172,19.64,-47.29,3.89,,,,,,34.48275862068966,-0.336,-0.695,0.636
1970-01-01 00:00:00.000223108,1755598014192,19.63,-47.28,3.91,,,,,,50.0,-0.337,-0.695,0.637
1970-01-01 00:00:00.000223138,1755598014221,19.63,-47.28,3.91,,,,,,33.333333333333336,-0.335,-0.694,0.638
1970-01-01 00:00:00.000223167,1755598014251,19.66,-47.29,3.91,,,,,,34.48275862068966,-0.335,-0.693,0.637
1970-01-01 00:00:00.000223197,1755598014280,19.65,-47.27,3.92,,,,,,33.333333333333336,-0.336,-0.692,0.636
1970-01-01 00:00:00.000223226,1755598014310,19.64,-47.28,3.89,,,,,,34.48275862068966,-0.334,-0.69,0.635
1970-01-01 00:00:00.000223256,1755598014339,19.62,-47.32,3.85,,,,,,33.333333333333336,-0.335,-0.693,0.636
1970-01-01 00:00:00.000223285,1755598014369,19.66,-47.35,3.87,,,,,,34.48275862068966,-0.337,-0.696,0.639
1970-01-01 00:00:00.000223315,1755598014398,19.65,-47.33,3.9,,,,,,33.333333333333336,-0.338,-0.696,0.639
1970-01-01 00:00:00.000223344,1755598014428,19.63,-47.33,3.88,,,,,,34.48275862068966,-0.333,-0.691,0.635
1970-01-01 00:00:00.000223374,1755598014458,19.64,-47.39,3.83,,,,,,33.333333333333336,-0.332,-0.69,0.633
1970-01-01 00:00:00.000223404,1755598014488,19.68,-47.45,3.81,,,,,,33.333333333333336,-0.336,-0.695,0.636
1970-01-01 00:00:00.000223424,1755598014507,19.69,-47.46,3.82,,,,,,50.0,-0.339,-0.698,0.638
1970-01-01 00:00:00.000223453,1755598014537,19.67,-47.46,3.8,,,,,,34.48275862068966,-0.336,-0.695,0.636
1970-01-01 00:00:00.000223483,1755598014566,19.66,-47.47,3.79,,,,,,33.333333333333336,-0.336,-0.695,0.636
1970-01-01 00:00:00.000223512,1755598014596,19.69,-47.48,3.8,,,,,,34.48275862068966,-0.338,-0.697,0.635
1970-01-01 00:00:00.000223542,1755598014625,19.64,-47.44,3.82,,,,,,33.333333333333336,-0.335,-0.698,0.635
1970-01-01 00:00:00.000223571,1755598014655,19.61,-47.42,3.81,,,,,,34.48275862068966,-0.332,-0.696,0.634
1970-01-01 00:00:00.000223601,1755598014684,19.62,-47.43,3.8,,,,,,33.333333333333336,-0.333,-0.697,0.635
1970-01-01 00:00:00.000223630,1755598014714,19.64,-47.41,3.82,,,,,,34.48275862068966,-0.335,-0.697,0.635
1970-01-01 00:00:00.000223659,1755598014743,19.6,-47.39,3.81,,,,,,34.48275862068966,-0.333,-0.696,0.635
1970-01-01 00:00:00.000223689,1755598014772,19.61,-47.37,3.82,,,,,,33.333333333333336,-0.333,-0.697,0.635
1970-01-01 00:00:00.000223718,1755598014802,19.63,-47.38,3.82,,,,,,34.48275862068966,-0.334,-0.696,0.634
1970-01-01 00:00:00.000223747,1755598014831,19.6,-47.4,3.81,,,,,,34.48275862068966,-0.333,-0.698,0.635
1970-01-01 00:00:00.000223777,1755598014860,19.62,-47.37,3.83,,,,,,33.333333333333336,-0.333,-0.697,0.635
1970-01-01 00:00:00.000223806,1755598014890,19.64,-47.38,3.83,,,,,,34.48275862068966,-0.333,-0.695,0.634
1970-01-01 00:00:00.000223836,1755598014920,19.6,-47.4,3.81,,,,,,33.333333333333336,-0.333,-0.695,0.634
1970-01-01 00:00:00.000223866,1755598014949,19.6,-47.4,3.81,,,,,,33.333333333333336,-0.333,-0.696,0.634
1970-01-01 00:00:00.000223895,1755598014979,19.63,-47.4,3.83,,,,,,34.48275862068966,-0.334,-0.697,0.634
1970-01-01 00:00:00.000223925,1755598015008,19.62,-47.39,3.83,,,,,,33.333333333333336,-0.334,-0.696,0.634
1970-01-01 00:00:00.000223954,1755598015038,19.6,-47.41,3.83,,,,,,34.48275862068966,-0.333,-0.695,0.634
1970-01-01 00:00:00.000224013,1755598015097,19.63,-47.41,3.85,,,,,,34.48275862068966,-0.334,-0.697,0.634
1970-01-01 00:00:00.000224043,1755598015126,19.62,-47.38,3.87,,,,,,33.333333333333336,-0.335,-0.696,0.634
1970-01-01 00:00:00.000224072,1755598015156,19.61,-47.38,3.87,,,,,,34.48275862068966,-0.332,-0.695,0.634
1970-01-01 00:00:00.000224102,1755598015185,19.62,-47.4,3.87,,,,,,33.333333333333336,-0.333,-0.695,0.633
1970-01-01 00:00:00.000224131,1755598015214,19.62,-47.4,3.88,,,,,,34.48275862068966,-0.334,-0.697,0.634
1970-01-01 00:00:00.000224160,1755598015244,19.61,-47.37,3.89,,,,,,34.48275862068966,-0.333,-0.697,0.634
1970-01-01 00:00:00.000224190,1755598015273,19.62,-47.38,3.9,,,,,,33.333333333333336,-0.334,-0.696,0.634
1970-01-01 00:00:00.000224219,1755598015303,19.61,-47.38,3.91,,,,,,34.48275862068966,-0.334,-0.694,0.633
1970-01-01 00:00:00.000224249,1755598015332,19.58,-47.38,3.91,,,,,,33.333333333333336,-0.332,-0.695,0.632
1970-01-01 00:00:00.000224278,1755598015362,19.6,-47.39,3.93,,,,,,34.48275862068966,-0.334,-0.698,0.634
1970-01-01 00:00:00.000224308,1755598015392,19.6,-47.36,3.95,,,,,,33.333333333333336,-0.333,-0.696,0.634
1970-01-01 00:00:00.000224338,1755598015421,19.58,-47.35,3.94,,,,,,33.333333333333336,-0.332,-0.694,0.633
1970-01-01 00:00:00.000224367,1755598015451,19.58,-47.4,3.93,,,,,,34.48275862068966,-0.334,-0.694,0.633
1970-01-01 00:00:00.000224397,1755598015480,19.59,-47.42,3.95,,,,,,33.333333333333336,-0.335,-0.696,0.635
1970-01-01 00:00:00.000224426,1755598015510,19.57,-47.4,3.97,,,,,,34.48275862068966,-0.334,-0.696,0.634
1970-01-01 00:00:00.000224485,1755598015569,19.58,-47.41,3.97,,,,,,33.333333333333336,-0.335,-0.697,0.634
1970-01-01 00:00:00.000224514,1755598015598,19.57,-47.38,4.0,,,,,,34.48275862068966,-0.335,-0.697,0.634
1970-01-01 00:00:00.000224544,1755598015628,19.55,-47.37,4.02,,,,,,33.333333333333336,-0.333,-0.694,0.633
1970-01-01 00:00:00.000224574,1755598015657,19.58,-47.4,4.01,,,,,,33.333333333333336,-0.334,-0.693,0.633
1970-01-01 00:00:00.000224603,1755598015686,19.56,-47.4,3.99,,,,,,34.48275862068966,-0.335,-0.696,0.634
1970-01-01 00:00:00.000224632,1755598015716,19.55,-47.38,4.0,,,,,,34.48275862068966,-0.334,-0.697,0.633
1970-01-01 00:00:00.000224662,1755598015745,19.57,-47.36,4.02,,,,,,33.333333333333336,-0.335,-0.697,0.633
1970-01-01 00:00:00.000224691,1755598015775,19.54,-47.36,4.01,,,,,,34.48275862068966,-0.334,-0.694,0.632
1970-01-01 00:00:00.000224721,1755598015804,19.53,-47.37,3.99,,,,,,33.333333333333336,-0.334,-0.693,0.633
1970-01-01 00:00:00.000224750,1755598015834,19.56,-47.39,4.0,,,,,,34.48275862068966,-0.336,-0.697,0.634
1970-01-01 00:00:00.000224780,1755598015864,19.57,-47.37,4.02,,,,,,33.333333333333336,-0.337,-0.698,0.634
1970-01-01 00:00:00.000224810,1755598015894,19.56,-47.36,4.04,,,,,,33.333333333333336,-0.333,-0.695,0.632
1970-01-01 00:00:00.000224839,1755598015923,19.59,-47.38,4.03,,,,,,34.48275862068966,-0.333,-0.694,0.632
1970-01-01 00:00:00.000224869,1755598015952,19.6,-47.4,4.03,,,,,,33.333333333333336,-0.334,-0.696,0.632
1970-01-01 00:00:00.000224898,1755598015982,19.6,-47.4,4.04,,,,,,34.48275862068966,-0.335,-0.697,0.633
1970-01-01 00:00:00.000224928,1755598016012,19.61,-47.4,4.06,,,,,,33.333333333333336,-0.334,-0.696,0.633
1970-01-01 00:00:00.000224958,1755598016041,19.61,-47.38,4.05,,,,,,33.333333333333336,-0.334,-0.695,0.633
1970-01-01 00:00:00.000224987,1755598016071,19.61,-47.38,4.06,,,,,,34.48275862068966,-0.335,-0.695,0.631
1970-01-01 00:00:00.000225017,1755598016100,19.61,-47.39,4.07,,,,,,33.333333333333336,-0.336,-0.696,0.631
1970-01-01 00:00:00.000225046,1755598016130,19.61,-47.39,4.07,,,,,,34.48275862068966,-0.336,-0.696,0.633
1970-01-01 00:00:00.000225076,1755598016159,19.63,-47.38,4.09,,,,,,33.333333333333336,-0.337,-0.696,0.634
1970-01-01 00:00:00.000225105,1755598016189,19.63,-47.35,4.11,,,,,,34.48275862068966,-0.336,-0.695,0.633
1970-01-01 00:00:00.000225135,1755598016219,19.64,-47.35,4.11,,,,,,33.333333333333336,-0.335,-0.695,0.632
1970-01-01 00:00:00.000225165,1755598016249,19.63,-47.35,4.11,,,,,,33.333333333333336,-0.334,-0.695,0.633
1970-01-01 00:00:00.000225194,1755598016278,19.65,-47.36,4.11,,,,,,34.48275862068966,-0.334,-0.695,0.634
1970-01-01 00:00:00.000225224,1755598016308,19.65,-47.35,4.12,,,,,,33.333333333333336,-0.333,-0.693,0.634
1970-01-01 00:00:00.000225254,1755598016337,19.65,-47.36,4.09,,,,,,33.333333333333336,-0.334,-0.693,0.633
1970-01-01 00:00:00.000225283,1755598016367,19.63,-47.38,4.08,,,,,,34.48275862068966,-0.337,-0.697,0.634
1970-01-01 00:00:00.000225313,1755598016397,19.65,-47.35,4.13,,,,,,33.333333333333336,-0.337,-0.698,0.635
1970-01-01 00:00:00.000225342,1755598016426,19.67,-47.32,4.16,,,,,,34.48275862068966,-0.335,-0.694,0.633
1970-01-01 00:00:00.000225372,1755598016456,19.66,-47.32,4.15,,,,,,33.333333333333336,-0.335,-0.693,0.634
1970-01-01 00:00:00.000225402,1755598016486,19.66,-47.33,4.14,,,,,,33.333333333333336,-0.336,-0.694,0.634
1970-01-01 00:00:00.000225432,1755598016515,19.66,-47.3,4.14,,,,,,33.333333333333336,-0.335,-0.693,0.632
1970-01-01 00:00:00.000225461,1755598016544,19.66,-47.31,4.12,,,,,,34.48275862068966,-0.334,-0.693,0.634
1970-01-01 00:00:00.000225490,1755598016574,19.65,-47.32,4.13,,,,,,34.48275862068966,-0.337,-0.693,0.634
1970-01-01 00:00:00.000225520,1755598016603,19.64,-47.31,4.13,,,,,,33.333333333333336,-0.335,-0.693,0.634
1970-01-01 00:00:00.000225549,1755598016633,19.65,-47.32,4.1,,,,,,34.48275862068966,-0.336,-0.695,0.634
1970-01-01 00:00:00.000225579,1755598016662,19.65,-47.34,4.11,,,,,,33.333333333333336,-0.338,-0.696,0.634
1970-01-01 00:00:00.000225608,1755598016692,19.64,-47.31,4.12,,,,,,34.48275862068966,-0.336,-0.695,0.634
1970-01-01 00:00:00.000225637,1755598016721,19.64,-47.33,4.1,,,,,,34.48275862068966,-0.335,-0.695,0.634
1970-01-01 00:00:00.000225667,1755598016750,19.66,-47.35,4.09,,,,,,33.333333333333336,-0.335,-0.694,0.633
1970-01-01 00:00:00.000225696,1755598016780,19.66,-47.34,4.1,,,,,,34.48275862068966,-0.336,-0.694,0.633
1970-01-01 00:00:00.000225726,1755598016810,19.64,-47.33,4.1,,,,,,33.333333333333336,-0.336,-0.695,0.634
1970-01-01 00:00:00.000225756,1755598016839,19.63,-47.34,4.1,,,,,,33.333333333333336,-0.335,-0.695,0.634
1970-01-01 00:00:00.000225785,1755598016869,19.66,-47.33,4.12,,,,,,34.48275862068966,-0.335,-0.696,0.634
1970-01-01 00:00:00.000225815,1755598016898,19.67,-47.32,4.15,,,,,,33.333333333333336,-0.336,-0.696,0.633
1970-01-01 00:00:00.000225844,1755598016928,19.64,-47.3,4.14,,,,,,34.48275862068966,-0.334,-0.693,0.633
1970-01-01 00:00:00.000225874,1755598016957,19.64,-47.3,4.13,,,,,,33.333333333333336,-0.332,-0.694,0.633
1970-01-01 00:00:00.000225903,1755598016986,19.68,-47.32,4.13,,,,,,34.48275862068966,-0.335,-0.696,0.633
1970-01-01 00:00:00.000225932,1755598017016,19.66,-47.3,4.15,,,,,,34.48275862068966,-0.336,-0.696,0.634
1970-01-01 00:00:00.000225962,1755598017046,19.63,-47.27,4.15,,,,,,33.333333333333336,-0.335,-0.694,0.634
1970-01-01 00:00:00.000225992,1755598017075,19.66,-47.27,4.16,,,,,,33.333333333333336,-0.334,-0.694,0.634
1970-01-01 00:00:00.000226021,1755598017104,19.67,-47.3,4.17,,,,,,34.48275862068966,-0.335,-0.695,0.634
1970-01-01 00:00:00.000226050,1755598017134,19.67,-47.3,4.18,,,,,,34.48275862068966,-0.336,-0.694,0.633
1970-01-01 00:00:00.000226080,1755598017163,19.64,-47.28,4.18,,,,,,33.333333333333336,-0.335,-0.692,0.633
1970-01-01 00:00:00.000226109,1755598017193,19.64,-47.72,4.17,,,,,,34.48275862068966,-0.331,-0.693,0.634
1970-01-01 00:00:00.000226139,1755598017223,19.68,-47.74,4.16,,,,,,33.333333333333336,-0.332,-0.694,0.635
1970-01-01 00:00:00.000226169,1755598017253,19.69,-47.75,4.15,,,,,,33.333333333333336,-0.335,-0.695,0.634
1970-01-01 00:00:00.000226198,1755598017282,19.72,-47.73,4.18,,,,,,34.48275862068966,-0.337,-0.697,0.635
1970-01-01 00:00:00.000226228,1755598017312,19.74,-47.67,4.23,,,,,,33.333333333333336,-0.335,-0.694,0.636
1970-01-01 00:00:00.000226258,1755598017341,19.75,-47.66,4.21,,,,,,33.333333333333336,-0.331,-0.69,0.634
1970-01-01 00:00:00.000226287,1755598017370,19.72,-47.72,4.18,,,,,,34.48275862068966,-0.335,-0.693,0.634
1970-01-01 00:00:00.000226316,1755598017400,19.71,-47.73,4.18,,,,,,34.48275862068966,-0.34,-0.697,0.636
1970-01-01 00:00:00.000226375,1755598017459,19.67,-47.62,4.23,,,,,,34.48275862068966,-0.335,-0.694,0.635
1970-01-01 00:00:00.000226405,1755598017488,19.68,-47.65,4.21,,,,,,33.333333333333336,-0.333,-0.692,0.633
1970-01-01 00:00:00.000226434,1755598017518,19.67,-47.67,4.19,,,,,,34.48275862068966,-0.336,-0.694,0.633
1970-01-01 00:00:00.000226464,1755598017547,19.66,-47.66,4.2,,,,,,33.333333333333336,-0.334,-0.694,0.634
1970-01-01 00:00:00.000226523,1755598017606,19.69,-47.69,4.2,,,,,,33.333333333333336,-0.335,-0.695,0.634
1970-01-01 00:00:00.000226552,1755598017636,19.69,-47.7,4.22,,,,,,34.48275862068966,-0.336,-0.696,0.635
1970-01-01 00:00:00.000226572,1755598017656,19.69,-47.68,4.24,,,,,,50.0,-0.334,-0.695,0.636
1970-01-01 00:00:00.000226602,1755598017685,19.71,-47.65,4.25,,,,,,33.333333333333336,-0.331,-0.692,0.635
1970-01-01 00:00:00.000226631,1755598017715,19.73,-47.69,4.22,,,,,,34.48275862068966,-0.333,-0.691,0.632
1970-01-01 00:00:00.000226661,1755598017745,19.74,-47.72,4.21,,,,,,33.333333333333336,-0.335,-0.696,0.633
1970-01-01 00:00:00.000226691,1755598017774,19.73,-47.7,4.23,,,,,,33.333333333333336,-0.336,-0.696,0.634
1970-01-01 00:00:00.000226720,1755598017804,19.73,-47.7,4.24,,,,,,34.48275862068966,-0.334,-0.693,0.634
1970-01-01 00:00:00.000226750,1755598017834,19.76,-47.74,4.23,,,,,,33.333333333333336,-0.336,-0.691,0.633
1970-01-01 00:00:00.000226770,1755598017854,19.77,-47.76,4.22,,,,,,50.0,-0.338,-0.693,0.633
1970-01-01 00:00:00.000226800,1755598017883,19.75,-47.76,4.2,,,,,,33.333333333333336,-0.336,-0.696,0.634
1970-01-01 00:00:00.000226829,1755598017913,19.77,-47.75,4.22,,,,,,34.48275862068966,-0.336,-0.697,0.632
1970-01-01 00:00:00.000226858,1755598017942,19.8,-47.76,4.23,,,,,,34.48275862068966,-0.336,-0.697,0.633
1970-01-01 00:00:00.000226888,1755598017971,19.77,-47.75,4.2,,,,,,33.333333333333336,-0.334,-0.695,0.632
1970-01-01 00:00:00.000226917,1755598018001,19.77,-47.75,4.19,,,,,,34.48275862068966,-0.336,-0.698,0.632
1970-01-01 00:00:00.000226947,1755598018030,19.8,-47.75,4.22,,,,,,33.333333333333336,-0.337,-0.698,0.633
1970-01-01 00:00:00.000226976,1755598018060,19.79,-47.71,4.24,,,,,,34.48275862068966,-0.336,-0.695,0.633
1970-01-01 00:00:00.000227035,1755598018119,19.78,-47.69,4.25,,,,,,34.48275862068966,-0.337,-0.698,0.63
1970-01-01 00:00:00.000227064,1755598018148,19.76,-47.66,4.27,,,,,,34.48275862068966,-0.336,-0.7,0.633
1970-01-01 00:00:00.000227094,1755598018178,19.77,-47.63,4.29,,,,,,33.333333333333336,-0.334,-0.696,0.633
1970-01-01 00:00:00.000227124,1755598018207,19.76,-47.62,4.27,,,,,,33.333333333333336,-0.333,-0.693,0.631
1970-01-01 00:00:00.000227153,1755598018237,19.75,-47.61,4.26,,,,,,34.48275862068966,-0.334,-0.695,0.631
1970-01-01 00:00:00.000227182,1755598018266,19.74,-47.6,4.25,,,,,,34.48275862068966,-0.335,-0.694,0.63
1970-01-01 00:00:00.000227212,1755598018296,19.73,-47.62,4.25,,,,,,33.333333333333336,-0.337,-0.695,0.633
1970-01-01 00:00:00.000227242,1755598018325,19.74,-47.62,4.27,,,,,,33.333333333333336,-0.337,-0.695,0.635
1970-01-01 00:00:00.000227271,1755598018355,19.73,-47.6,4.28,,,,,,34.48275862068966,-0.335,-0.693,0.634
1970-01-01 00:00:00.000227301,1755598018384,19.73,-47.63,4.26,,,,,,33.333333333333336,-0.332,-0.694,0.632
1970-01-01 00:00:00.000227330,1755598018414,19.75,-47.66,4.26,,,,,,34.48275862068966,-0.334,-0.697,0.631
1970-01-01 00:00:00.000227360,1755598018443,19.76,-47.64,4.28,,,,,,33.333333333333336,-0.336,-0.699,0.632
1970-01-01 00:00:00.000227389,1755598018473,19.73,-47.62,4.27,,,,,,34.48275862068966,-0.335,-0.697,0.633
1970-01-01 00:00:00.000227419,1755598018502,19.75,-47.63,4.28,,,,,,33.333333333333336,-0.337,-0.698,0.634
1970-01-01 00:00:00.000227448,1755598018532,19.76,-47.58,4.32,,,,,,34.48275862068966,-0.335,-0.697,0.633
1970-01-01 00:00:00.000227478,1755598018562,19.73,-47.55,4.31,,,,,,33.333333333333336,-0.332,-0.695,0.632
1970-01-01 00:00:00.000227507,1755598018591,19.76,-47.59,4.31,,,,,,34.48275862068966,-0.335,-0.696,0.635
1970-01-01 00:00:00.000227537,1755598018620,19.77,-47.51,4.34,,,,,,33.333333333333336,-0.337,-0.697,0.636
1970-01-01 00:00:00.000227566,1755598018650,19.74,-47.48,4.34,,,,,,34.48275862068966,-0.334,-0.695,0.633
1970-01-01 00:00:00.000227596,1755598018680,19.76,-47.5,4.34,,,,,,33.333333333333336,-0.336,-0.696,0.632
1970-01-01 00:00:00.000227655,1755598018739,19.72,-47.48,4.33,,,,,,34.48275862068966,-0.336,-0.695,0.635
1970-01-01 00:00:00.000227685,1755598018768,19.72,-47.45,4.34,,,,,,33.333333333333336,-0.336,-0.697,0.634
1970-01-01 00:00:00.000227714,1755598018798,19.77,-47.43,4.37,,,,,,34.48275862068966,-0.337,-0.697,0.634
1970-01-01 00:00:00.000227744,1755598018828,19.73,-47.42,4.37,,,,,,33.333333333333336,-0.334,-0.694,0.635
1970-01-01 00:00:00.000227773,1755598018857,19.72,-47.41,4.35,,,,,,34.48275862068966,-0.334,-0.693,0.635
1970-01-01 00:00:00.000227803,1755598018887,19.75,-47.42,4.34,,,,,,33.333333333333336,-0.336,-0.694,0.635
1970-01-01 00:00:00.000227833,1755598018916,19.75,-47.43,4.35,,,,,,33.333333333333336,-0.337,-0.696,0.635
1970-01-01 00:00:00.000227862,1755598018946,19.74,-47.4,4.37,,,,,,34.48275862068966,-0.336,-0.693,0.635
1970-01-01 00:00:00.000227892,1755598018975,19.74,-47.41,4.36,,,,,,33.333333333333336,-0.335,-0.692,0.635
1970-01-01 00:00:00.000227921,1755598019005,19.73,-47.45,4.34,,,,,,34.48275862068966,-0.336,-0.693,0.634
1970-01-01 00:00:00.000227951,1755598019034,19.75,-47.45,4.36,,,,,,33.333333333333336,-0.337,-0.696,0.634
1970-01-01 00:00:00.000227980,1755598019064,19.77,-47.43,4.38,,,,,,34.48275862068966,-0.337,-0.697,0.636
1970-01-01 00:00:00.000228010,1755598019093,19.74,-47.43,4.37,,,,,,33.333333333333336,-0.336,-0.694,0.635
1970-01-01 00:00:00.000228039,1755598019123,19.73,-47.43,4.36,,,,,,34.48275862068966,-0.336,-0.695,0.634
1970-01-01 00:00:00.000228069,1755598019153,19.75,-47.42,4.37,,,,,,33.333333333333336,-0.337,-0.696,0.635
1970-01-01 00:00:00.000228099,1755598019182,19.73,-47.39,4.39,,,,,,33.333333333333336,-0.336,-0.695,0.635
1970-01-01 00:00:00.000228128,1755598019212,19.72,-47.38,4.39,,,,,,34.48275862068966,-0.336,-0.695,0.635
1970-01-01 00:00:00.000228157,1755598019241,19.74,-47.38,4.4,,,,,,34.48275862068966,-0.336,-0.694,0.635
1970-01-01 00:00:00.000228187,1755598019271,19.74,-47.38,4.42,,,,,,33.333333333333336,-0.336,-0.694,0.635
1970-01-01 00:00:00.000228207,1755598019290,19.74,-47.37,4.42,,,,,,50.0,-0.335,-0.695,0.635
1970-01-01 00:00:00.000228236,1755598019320,19.73,-47.36,4.42,,,,,,34.48275862068966,-0.335,-0.694,0.634
1970-01-01 00:00:00.000228266,1755598019349,19.72,-47.38,4.41,,,,,,33.333333333333336,-0.337,-0.695,0.634
1970-01-01 00:00:00.000228295,1755598019379,19.72,-47.38,4.42,,,,,,34.48275862068966,-0.336,-0.695,0.635
1970-01-01 00:00:00.000228325,1755598019409,19.72,-47.35,4.43,,,,,,33.333333333333336,-0.335,-0.696,0.635
1970-01-01 00:00:00.000228354,1755598019438,19.72,-47.35,4.44,,,,,,34.48275862068966,-0.336,-0.696,0.633
1970-01-01 00:00:00.000228384,1755598019468,19.71,-47.34,4.44,,,,,,33.333333333333336,-0.334,-0.693,0.633
1970-01-01 00:00:00.000228443,1755598019527,19.73,-47.37,4.43,,,,,,33.333333333333336,-0.338,-0.695,0.635
1970-01-01 00:00:00.000228502,1755598019586,19.73,-47.35,4.46,,,,,,34.48275862068966,-0.335,-0.695,0.635
1970-01-01 00:00:00.000228532,1755598019616,19.78,-47.36,4.48,,,,,,33.333333333333336,-0.337,-0.695,0.635
1970-01-01 00:00:00.000228562,1755598019645,19.77,-47.36,4.47,,,,,,33.333333333333336,-0.339,-0.694,0.634
1970-01-01 00:00:00.000228650,1755598019733,19.78,-47.31,4.5,,,,,,33.333333333333336,-0.339,-0.696,0.634
1970-01-01 00:00:00.000228679,1755598019763,19.76,-47.31,4.53,,,,,,34.48275862068966,-0.337,-0.695,0.634
1970-01-01 00:00:00.000228738,1755598019822,19.8,-47.32,4.52,,,,,,34.48275862068966,-0.336,-0.69,0.633
1970-01-01 00:00:00.000228768,1755598019852,19.78,-47.33,4.51,,,,,,33.333333333333336,-0.336,-0.692,0.635
1970-01-01 00:00:00.000228797,1755598019881,19.8,-47.32,4.52,,,,,,34.48275862068966,-0.336,-0.692,0.634
1970-01-01 00:00:00.000228827,1755598019911,19.79,-47.34,4.52,,,,,,33.333333333333336,-0.337,-0.693,0.634
1970-01-01 00:00:00.000228857,1755598019941,19.76,-47.33,4.5,,,,,,33.333333333333336,-0.336,-0.694,0.634
1970-01-01 00:00:00.000228877,1755598019960,19.76,-47.32,4.5,,,,,,50.0,-0.336,-0.694,0.634
1970-01-01 00:00:00.000228906,1755598019990,19.77,-47.32,4.51,,,,,,34.48275862068966,-0.338,-0.695,0.634
1970-01-01 00:00:00.000228936,1755598020020,19.76,-47.3,4.53,,,,,,33.333333333333336,-0.338,-0.695,0.635
1970-01-01 00:00:00.000228965,1755598020049,19.75,-47.27,4.53,,,,,,34.48275862068966,-0.338,-0.694,0.635
1970-01-01 00:00:00.000228995,1755598020079,19.74,-47.26,4.55,,,,,,33.333333333333336,-0.338,-0.694,0.634
1970-01-01 00:00:00.000229015,1755598020099,19.74,-47.26,4.56,,,,,,50.0,-0.337,-0.694,0.633
1970-01-01 00:00:00.000229044,1755598020128,19.73,-47.24,4.56,,,,,,34.48275862068966,-0.336,-0.694,0.633
1970-01-01 00:00:00.000229074,1755598020158,19.73,-47.24,4.56,,,,,,33.333333333333336,-0.335,-0.694,0.633
1970-01-01 00:00:00.000229104,1755598020187,19.72,-47.25,4.55,,,,,,33.333333333333336,-0.336,-0.694,0.634
1970-01-01 00:00:00.000229133,1755598020217,19.71,-47.25,4.56,,,,,,34.48275862068966,-0.337,-0.693,0.634
1970-01-01 00:00:00.000229163,1755598020246,19.72,-47.23,4.57,,,,,,33.333333333333336,-0.337,-0.693,0.634
1970-01-01 00:00:00.000229192,1755598020276,19.73,-47.26,4.56,,,,,,34.48275862068966,-0.337,-0.693,0.634
1970-01-01 00:00:00.000229221,1755598020305,19.73,-47.29,4.55,,,,,,34.48275862068966,-0.338,-0.694,0.635
1970-01-01 00:00:00.000229251,1755598020334,19.73,-47.28,4.56,,,,,,33.333333333333336,-0.338,-0.694,0.634
1970-01-01 00:00:00.000229280,1755598020364,19.74,-47.29,4.56,,,,,,34.48275862068966,-0.338,-0.695,0.634
1970-01-01 00:00:00.000229310,1755598020394,19.73,-47.29,4.55,,,,,,33.333333333333336,-0.338,-0.694,0.634
1970-01-01 00:00:00.000229339,1755598020423,19.72,-47.28,4.55,,,,,,34.48275862068966,-0.338,-0.693,0.634
1970-01-01 00:00:00.000229369,1755598020453,19.73,-47.28,4.56,,,,,,33.333333333333336,-0.338,-0.693,0.634
1970-01-01 00:00:00.000229399,1755598020482,19.71,-47.27,4.56,,,,,,33.333333333333336,-0.338,-0.693,0.634
1970-01-01 00:00:00.000229457,1755598020541,19.72,-47.27,4.58,,,,,,34.48275862068966,-0.337,-0.694,0.635
1970-01-01 00:00:00.000229487,1755598020571,19.71,-47.28,4.58,,,,,,33.333333333333336,-0.336,-0.692,0.634
1970-01-01 00:00:00.000229517,1755598020600,19.7,-47.28,4.58,,,,,,33.333333333333336,-0.336,-0.693,0.634
1970-01-01 00:00:00.000229576,1755598020660,19.74,-47.28,4.61,,,,,,33.333333333333336,-0.337,-0.693,0.635
1970-01-01 00:00:00.000229605,1755598020689,19.72,-47.27,4.6,,,,,,34.48275862068966,-0.335,-0.692,0.633
1970-01-01 00:00:00.000229635,1755598020719,19.73,-47.3,4.59,,,,,,33.333333333333336,-0.335,-0.692,0.633
1970-01-01 00:00:00.000229694,1755598020778,19.73,-47.32,4.6,,,,,,33.333333333333336,-0.336,-0.694,0.634
1970-01-01 00:00:00.000229724,1755598020807,19.73,-47.31,4.6,,,,,,33.333333333333336,-0.334,-0.693,0.633
1970-01-01 00:00:00.000229753,1755598020837,19.74,-47.32,4.59,,,,,,34.48275862068966,-0.334,-0.692,0.631
1970-01-01 00:00:00.000229782,1755598020866,19.73,-47.35,4.58,,,,,,34.48275862068966,-0.337,-0.693,0.632
1970-01-01 00:00:00.000229812,1755598020896,19.73,-47.35,4.58,,,,,,33.333333333333336,-0.337,-0.694,0.634
1970-01-01 00:00:00.000229842,1755598020925,19.73,-47.34,4.59,,,,,,33.333333333333336,-0.335,-0.694,0.633
1970-01-01 00:00:00.000229871,1755598020955,19.73,-47.36,4.57,,,,,,34.48275862068966,-0.335,-0.692,0.631
1970-01-01 00:00:00.000229901,1755598020984,19.71,-47.39,4.55,,,,,,33.333333333333336,-0.337,-0.694,0.633
1970-01-01 00:00:00.000229930,1755598021014,19.7,-47.38,4.56,,,,,,34.48275862068966,-0.339,-0.696,0.634
