timestamp_ms,recv_timestamp_ms,pitch,roll,yaw,flex1,flex2,flex3,flex4,flex5,sampling_hz,accel_x,accel_y,accel_z
196085,1755603437727,27.82,-33.14,-25.1,770,781,769,316,824,33.333333333333336,-0.459,-0.486,0.746
196115,1755603437729,27.81,-33.15,-25.12,782,779,773,393,823,33.333333333333336,-0.459,-0.486,0.744
196135,1755603437731,27.78,-33.15,-25.13,779,775,773,332,821,50.0,-0.462,-0.488,0.744
196165,1755603437733,27.73,-33.13,-25.13,779,775,765,399,820,33.333333333333336,-0.46,-0.488,0.745
196195,1755603437735,27.78,-33.15,-25.13,779,774,775,433,814,33.333333333333336,-0.459,-0.487,0.747
196225,1755603437737,27.79,-33.18,-25.13,770,778,771,397,818,33.333333333333336,-0.458,-0.488,0.745
196255,1755603437739,27.8,-33.21,-25.13,774,777,770,308,822,33.333333333333336,-0.459,-0.489,0.745
196275,1755603437741,27.8,-33.24,-25.12,767,771,772,435,814,50.0,-0.459,-0.488,0.746
196305,1755603437743,27.81,-33.22,-25.13,774,777,776,315,817,33.333333333333336,-0.459,-0.487,0.746
196325,1755603437745,27.8,-33.21,-25.14,772,780,778,441,822,50.0,-0.458,-0.486,0.745
196355,1755603437747,27.8,-33.24,-25.17,779,775,776,329,815,33.333333333333336,-0.457,-0.487,0.744
196385,1755603437749,27.83,-33.27,-25.17,784,780,773,321,820,33.333333333333336,-0.461,-0.491,0.745
196415,1755603437751,27.81,-33.24,-25.16,779,781,774,398,817,33.333333333333336,-0.46,-0.489,0.744
196445,1755603437753,27.8,-33.24,-25.17,777,772,779,437,812,33.333333333333336,-0.458,-0.487,0.743
196474,1755603437755,27.83,-33.26,-25.18,775,780,769,380,816,34.48275862068966,-0.461,-0.49,0.744
196495,1755603437757,27.8,-33.25,-25.17,775,778,774,407,823,47.61904761904762,-0.463,-0.492,0.744
196524,1755603437759,27.76,-33.2,-25.16,777,778,771,387,820,34.48275862068966,-0.461,-0.49,0.744
196554,1755603437761,27.75,-33.19,-25.16,778,773,774,311,814,33.333333333333336,-0.459,-0.489,0.745
196584,1755603437763,27.79,-33.21,-25.16,773,778,771,328,809,33.333333333333336,-0.459,-0.49,0.746
196635,1755603437768,27.78,-33.21,-25.14,781,770,780,355,813,33.333333333333336,-0.46,-0.489,0.745
196665,1755603437770,27.77,-33.2,-25.14,769,777,769,424,817,33.333333333333336,-0.46,-0.489,0.746
196695,1755603437773,27.76,-32.74,-25.14,776,776,771,450,815,33.333333333333336,-0.459,-0.488,0.746
196725,1755603437775,27.76,-32.74,-25.15,776,777,773,388,817,33.333333333333336,-0.459,-0.488,0.746
196745,1755603437777,27.76,-32.75,-25.15,778,785,777,401,831,50.0,-0.46,-0.488,0.746
196775,1755603437779,27.72,-32.73,-25.15,776,777,773,378,822,33.333333333333336,-0.46,-0.488,0.745
196805,1755603437781,27.71,-32.74,-25.15,777,777,780,298,819,33.333333333333336,-0.458,-0.486,0.746
196825,1755603437783,27.71,-32.76,-25.15,776,776,773,420,814,50.0,-0.458,-0.487,0.747
196845,1755603437786,27.72,-32.78,-25.15,784,781,771,421,819,50.0,-0.459,-0.488,0.748
196875,1755603437787,27.71,-32.76,-25.15,780,773,777,376,819,33.333333333333336,-0.46,-0.488,0.746
196904,1755603437790,27.69,-32.75,-25.14,777,778,777,296,816,34.48275862068966,-0.459,-0.488,0.745
196925,1755603437792,27.7,-32.76,-25.14,770,779,774,421,820,47.61904761904762,-0.46,-0.488,0.747
196945,1755603437794,27.7,-32.76,-25.13,781,772,773,424,814,50.0,-0.459,-0.488,0.747
196974,1755603437797,27.7,-32.75,-25.14,776,776,778,377,818,34.48275862068966,-0.458,-0.487,0.745
196994,1755603437799,27.69,-32.76,-25.14,779,779,778,417,818,50.0,-0.459,-0.487,0.746
197024,1755603437801,27.69,-32.75,-25.13,781,776,777,370,822,33.333333333333336,-0.459,-0.486,0.748
197054,1755603437803,27.69,-32.74,-25.14,780,774,775,287,820,33.333333333333336,-0.461,-0.485,0.749
197084,1755603437805,27.68,-32.74,-25.15,774,776,781,331,823,33.333333333333336,-0.461,-0.485,0.748
197114,1755603437835,27.67,-32.76,-25.15,775,779,780,429,820,33.333333333333336,-0.46,-0.485,0.75
197144,1755603437865,27.71,-32.81,-25.16,773,776,776,386,815,33.333333333333336,-0.46,-0.485,0.749
197164,1755603437884,27.73,-32.81,-25.17,781,780,776,358,817,50.0,-0.46,-0.485,0.749
197194,1755603437914,27.72,-32.81,-25.18,779,780,773,382,813,33.333333333333336,-0.46,-0.485,0.747
197223,1755603437944,27.69,-32.8,-25.18,774,770,777,311,813,34.48275862068966,-0.459,-0.486,0.746
197253,1755603437974,27.7,-32.81,-25.18,777,771,775,303,830,33.333333333333336,-0.459,-0.486,0.748
197283,1755603438004,27.71,-32.8,-25.18,777,773,770,322,820,33.333333333333336,-0.46,-0.486,0.747
197313,1755603438034,27.69,-32.79,-25.19,778,778,770,425,819,33.333333333333336,-0.459,-0.485,0.745
197343,1755603438064,27.7,-32.83,-25.19,779,772,772,401,821,33.333333333333336,-0.458,-0.485,0.745
197364,1755603438084,27.7,-32.86,-25.19,769,783,774,392,814,47.61904761904762,-0.46,-0.486,0.747
197393,1755603438114,27.7,-32.86,-25.2,780,780,776,392,813,34.48275862068966,-0.459,-0.486,0.746
197423,1755603438144,27.68,-32.84,-25.21,773,785,777,324,806,33.333333333333336,-0.459,-0.486,0.745
197453,1755603438174,27.68,-32.85,-25.22,772,776,769,304,814,33.333333333333336,-0.46,-0.486,0.747
197483,1755603438203,27.69,-32.83,-25.21,779,782,770,362,813,33.333333333333336,-0.459,-0.486,0.747
197513,1755603438233,27.69,-32.82,-25.23,782,782,775,410,825,33.333333333333336,-0.457,-0.484,0.746
197542,1755603438263,27.71,-32.86,-25.26,779,780,774,395,819,34.48275862068966,-0.46,-0.486,0.745
197562,1755603438283,27.71,-32.88,-25.25,773,774,769,404,828,50.0,-0.463,-0.488,0.746
197592,1755603438313,27.71,-32.87,-25.25,771,779,774,387,820,33.333333333333336,-0.46,-0.487,0.746
197652,1755603438373,27.77,-32.93,-25.27,777,779,776,305,819,33.333333333333336,-0.461,-0.489,0.746
197682,1755603438403,27.75,-32.9,-25.27,778,772,769,403,825,33.333333333333336,-0.461,-0.489,0.747
197702,1755603438422,27.72,-32.87,-25.27,775,771,768,318,817,50.0,-0.458,-0.487,0.745
197732,1755603438452,27.73,-32.89,-25.28,783,779,776,416,825,33.333333333333336,-0.458,-0.487,0.746
197761,1755603438482,27.75,-32.9,-25.28,779,771,777,441,824,34.48275862068966,-0.46,-0.487,0.747
197791,1755603438512,27.74,-32.88,-25.28,780,780,776,397,816,33.333333333333336,-0.46,-0.486,0.746
197821,1755603438542,27.72,-32.88,-25.28,780,775,772,270,816,33.333333333333336,-0.46,-0.486,0.746
197851,1755603438572,27.72,-32.88,-25.28,785,782,775,313,816,33.333333333333336,-0.459,-0.486,0.747
197871,1755603438592,27.73,-32.89,-25.27,774,777,774,353,822,50.0,-0.459,-0.486,0.746
197901,1755603438622,27.73,-32.9,-25.28,778,775,771,366,820,33.333333333333336,-0.46,-0.487,0.746
197921,1755603438642,27.7,-32.89,-25.28,775,780,774,373,809,50.0,-0.46,-0.487,0.746
197951,1755603438672,27.69,-32.88,-25.27,780,784,774,356,817,33.333333333333336,-0.459,-0.487,0.747
197971,1755603438692,27.7,-32.89,-25.27,776,774,768,366,817,50.0,-0.459,-0.487,0.748
197991,1755603438712,27.72,-32.91,-25.26,779,773,771,457,821,50.0,-0.46,-0.487,0.749
198021,1755603438742,27.71,-32.88,-25.25,776,782,775,349,816,33.333333333333336,-0.459,-0.486,0.748
198051,1755603438772,27.68,-32.86,-25.27,770,779,778,349,824,33.333333333333336,-0.457,-0.483,0.746
198071,1755603438792,27.68,-32.88,-25.29,779,783,770,362,823,50.0,-0.458,-0.483,0.745
198101,1755603438822,27.68,-32.91,-25.29,783,781,768,360,819,33.333333333333336,-0.46,-0.485,0.747
198131,1755603438852,27.69,-32.88,-25.27,775,782,774,451,816,33.333333333333336,-0.458,-0.484,0.746
198161,1755603438882,27.7,-32.91,-25.3,778,772,780,453,817,33.333333333333336,-0.457,-0.483,0.745
198191,1755603438912,27.7,-32.92,-25.31,773,775,772,380,824,33.333333333333336,-0.459,-0.485,0.746
198221,1755603438941,27.69,-32.92,-25.3,771,779,771,325,820,33.333333333333336,-0.46,-0.485,0.746
198280,1755603439001,27.72,-32.96,-25.31,784,779,771,447,816,33.333333333333336,-0.46,-0.487,0.747
198310,1755603439031,27.71,-32.94,-25.31,776,777,771,430,817,33.333333333333336,-0.459,-0.487,0.747
198330,1755603439051,27.7,-32.93,-25.3,780,779,771,392,828,50.0,-0.457,-0.486,0.747
198360,1755603439081,27.69,-32.94,-25.31,774,770,773,401,819,33.333333333333336,-0.457,-0.485,0.747
198390,1755603439111,27.71,-32.95,-25.33,773,780,780,305,814,33.333333333333336,-0.46,-0.487,0.747
198420,1755603439140,27.71,-32.95,-25.32,777,780,773,304,816,33.333333333333336,-0.459,-0.486,0.746
198450,1755603439170,27.71,-32.97,-25.32,776,775,764,365,816,33.333333333333336,-0.458,-0.485,0.745
198480,1755603439200,27.74,-32.99,-25.32,779,771,774,443,823,33.333333333333336,-0.457,-0.486,0.746
198509,1755603439230,27.78,-33.0,-25.33,772,788,769,424,815,34.48275862068966,-0.456,-0.486,0.746
198560,1755603439280,27.79,-33.03,-25.4,781,775,775,437,823,47.61904761904762,-0.459,-0.485,0.743
198589,1755603439310,27.84,-33.07,-25.4,784,776,774,331,818,34.48275862068966,-0.463,-0.488,0.746
198649,1755603439370,27.91,-33.1,-25.41,772,780,773,412,815,33.333333333333336,-0.461,-0.487,0.741
198679,1755603439399,27.89,-33.1,-25.42,779,776,775,452,822,33.333333333333336,-0.463,-0.488,0.743
198709,1755603439429,27.93,-33.1,-25.42,775,781,773,412,824,33.333333333333336,-0.461,-0.487,0.744
198729,1755603439449,27.96,-33.13,-25.44,780,772,774,412,816,50.0,-0.461,-0.486,0.742
198758,1755603439479,27.94,-33.14,-25.46,785,783,778,382,817,34.48275862068966,-0.462,-0.487,0.742
198788,1755603439509,27.93,-33.13,-25.47,775,776,777,308,822,33.333333333333336,-0.462,-0.487,0.742
198818,1755603439539,27.96,-33.17,-25.49,777,783,764,335,816,33.333333333333336,-0.461,-0.488,0.742
198848,1755603439569,28.0,-33.22,-25.5,785,783,772,441,818,33.333333333333336,-0.462,-0.488,0.742
198908,1755603439628,28.0,-33.25,-25.51,779,774,776,365,814,33.333333333333336,-0.463,-0.489,0.739
198937,1755603439658,27.98,-33.29,-25.53,778,785,770,306,820,34.48275862068966,-0.463,-0.49,0.738
198967,1755603439688,27.97,-33.31,-25.53,771,780,773,339,813,33.333333333333336,-0.464,-0.492,0.74
198997,1755603439718,27.98,-33.31,-25.53,775,776,771,438,815,33.333333333333336,-0.462,-0.492,0.739
199027,1755603439748,27.97,-33.32,-25.55,778,783,769,424,821,33.333333333333336,-0.461,-0.492,0.738
199057,1755603439778,27.97,-33.33,-25.55,776,778,775,317,819,33.333333333333336,-0.464,-0.494,0.739
199077,1755603439798,27.96,-33.32,-25.55,785,784,767,444,817,50.0,-0.463,-0.494,0.74
199097,1755603439818,27.95,-33.3,-25.55,775,775,770,402,824,50.0,-0.463,-0.493,0.739
199117,1755603439838,27.94,-33.29,-25.55,775,779,767,302,817,50.0,-0.462,-0.492,0.738
199137,1755603439858,27.94,-33.3,-25.55,779,774,774,327,819,50.0,-0.462,-0.491,0.739
199157,1755603439878,27.93,-33.31,-25.55,772,780,774,417,814,50.0,-0.462,-0.492,0.739
199187,1755603439908,27.93,-33.3,-25.54,779,770,777,357,826,33.333333333333336,-0.463,-0.492,0.739
199217,1755603439938,27.93,-33.29,-25.53,778,776,767,375,820,33.333333333333336,-0.462,-0.491,0.74
199237,1755603439958,27.92,-33.29,-25.53,776,774,774,357,822,50.0,-0.461,-0.491,0.74
199267,1755603439988,27.92,-33.3,-25.53,768,769,776,387,815,33.333333333333336,-0.462,-0.492,0.74
199287,1755603440008,27.93,-33.3,-25.52,777,777,776,313,814,50.0,-0.463,-0.492,0.74
199307,1755603440028,27.91,-33.3,-25.52,777,777,772,394,826,50.0,-0.463,-0.493,0.739
199337,1755603440058,27.86,-33.26,-25.51,773,784,776,341,818,33.333333333333336,-0.462,-0.492,0.739
199357,1755603440078,27.84,-33.25,-25.5,771,782,773,427,816,50.0,-0.461,-0.491,0.74
199387,1755603440108,27.84,-33.24,-25.49,777,777,775,356,821,33.333333333333336,-0.461,-0.492,0.741
199417,1755603440138,27.81,-33.2,-25.5,776,782,771,364,822,33.333333333333336,-0.459,-0.49,0.741
199437,1755603440158,27.8,-33.18,-25.51,772,777,775,340,824,50.0,-0.457,-0.488,0.741
199467,1755603440188,27.82,-33.18,-25.52,773,781,771,369,815,33.333333333333336,-0.461,-0.491,0.74
199497,1755603440218,27.8,-33.14,-25.5,776,774,772,468,818,33.333333333333336,-0.464,-0.493,0.74
199527,1755603440248,27.76,-33.08,-25.47,782,784,774,444,821,33.333333333333336,-0.462,-0.489,0.74
199557,1755603440278,27.77,-33.1,-25.49,779,777,773,343,818,33.333333333333336,-0.461,-0.488,0.741
199577,1755603440298,27.78,-33.11,-25.49,777,777,774,437,812,50.0,-0.464,-0.491,0.743
199607,1755603440327,27.74,-33.06,-25.46,775,771,775,341,815,33.333333333333336,-0.463,-0.491,0.742
199636,1755603440357,27.73,-33.01,-25.45,775,779,769,327,811,34.48275862068966,-0.46,-0.488,0.742
199666,1755603440387,27.75,-33.0,-25.44,779,776,777,387,818,33.333333333333336,-0.461,-0.485,0.744
199696,1755603440417,27.76,-33.01,-25.44,768,779,772,441,818,33.333333333333336,-0.463,-0.485,0.744
199726,1755603440447,27.74,-33.0,-25.43,776,778,778,405,817,33.333333333333336,-0.463,-0.486,0.743
199756,1755603440478,27.74,-32.99,-25.41,773,779,772,307,822,33.333333333333336,-0.463,-0.486,0.745
199777,1755603440497,27.72,-32.98,-25.41,777,781,769,443,820,47.61904761904762,-0.46,-0.484,0.745
199806,1755603440527,27.71,-32.98,-25.41,775,774,780,340,822,34.48275862068966,-0.459,-0.484,0.744
199826,1755603440547,27.72,-32.99,-25.42,778,767,777,442,814,50.0,-0.462,-0.485,0.744
199856,1755603440577,27.71,-33.0,-25.41,777,780,773,327,815,33.333333333333336,-0.462,-0.485,0.744
199886,1755603440607,27.69,-32.99,-25.42,773,780,777,337,818,33.333333333333336,-0.461,-0.485,0.744
199916,1755603440637,27.71,-33.02,-25.42,784,779,772,398,813,33.333333333333336,-0.46,-0.486,0.744
199946,1755603440667,27.71,-33.01,-25.41,775,782,774,432,817,33.333333333333336,-0.461,-0.487,0.745
199976,1755603440696,27.72,-32.98,-25.39,775,779,771,406,817,33.333333333333336,-0.46,-0.486,0.745
200005,1755603440726,27.73,-32.97,-25.4,776,771,777,310,814,34.48275862068966,-0.46,-0.483,0.744
200035,1755603440756,27.73,-33.0,-25.4,776,776,782,338,820,33.333333333333336,-0.462,-0.485,0.745
200065,1755603440786,27.74,-32.98,-25.39,781,776,767,414,815,33.333333333333336,-0.461,-0.486,0.746
200095,1755603440816,27.77,-32.95,-25.38,770,778,777,424,817,33.333333333333336,-0.458,-0.484,0.745
200125,1755603440846,27.79,-32.98,-25.38,777,778,774,386,818,33.333333333333336,-0.46,-0.483,0.745
200155,1755603440876,27.81,-32.99,-25.38,785,773,770,272,819,33.333333333333336,-0.463,-0.484,0.745
200175,1755603440896,27.79,-32.98,-25.38,780,777,773,416,825,50.0,-0.463,-0.485,0.745
200205,1755603440926,27.76,-32.94,-25.38,778,779,767,321,821,33.333333333333336,-0.461,-0.483,0.746
200225,1755603440946,27.76,-32.92,-25.39,778,777,774,436,817,50.0,-0.46,-0.483,0.746
200255,1755603440976,27.78,-32.94,-25.4,778,778,776,329,820,33.333333333333336,-0.46,-0.484,0.746
200275,1755603440996,27.79,-32.95,-25.41,780,770,772,448,827,50.0,-0.462,-0.483,0.746
200305,1755603441026,27.82,-32.97,-25.42,779,771,771,327,822,33.333333333333336,-0.464,-0.483,0.744
200355,1755603441076,27.84,-32.98,-25.41,780,777,774,327,817,33.333333333333336,-0.462,-0.485,0.746
200375,1755603441096,27.84,-32.96,-25.41,774,784,771,425,832,50.0,-0.46,-0.484,0.745
200405,1755603441126,27.87,-32.98,-25.43,777,778,773,339,818,33.333333333333336,-0.462,-0.483,0.744
200435,1755603441155,27.9,-33.02,-25.45,768,779,771,350,821,33.333333333333336,-0.466,-0.485,0.744
200495,1755603441215,27.91,-33.04,-25.45,776,771,767,431,821,33.333333333333336,-0.461,-0.483,0.744
200515,1755603441235,27.91,-33.06,-25.47,779,787,775,392,817,50.0,-0.46,-0.483,0.745
200544,1755603441265,27.92,-33.07,-25.49,774,780,771,393,823,34.48275862068966,-0.463,-0.485,0.745
200574,1755603441295,27.93,-33.06,-25.49,772,780,779,342,823,33.333333333333336,-0.464,-0.486,0.743
200604,1755603441325,27.94,-33.09,-25.48,772,780,776,318,830,33.333333333333336,-0.464,-0.486,0.743
200654,1755603441375,27.96,-33.11,-25.48,778,776,769,348,814,50.0,-0.461,-0.484,0.745
200674,1755603441395,27.98,-33.13,-25.5,779,781,771,415,812,50.0,-0.463,-0.486,0.743
200704,1755603441425,27.96,-33.15,-25.49,770,777,774,324,813,33.333333333333336,-0.465,-0.487,0.743
200734,1755603441455,27.95,-33.13,-25.49,775,776,773,345,821,33.333333333333336,-0.463,-0.487,0.743
200764,1755603441484,27.95,-33.14,-25.51,775,780,777,437,817,33.333333333333336,-0.462,-0.486,0.744
200794,1755603441515,27.96,-33.16,-25.52,777,773,768,409,820,33.333333333333336,-0.464,-0.489,0.743
200814,1755603441534,27.96,-33.16,-25.51,778,777,770,391,811,50.0,-0.466,-0.49,0.743
200844,1755603441564,27.94,-33.13,-25.5,785,776,776,392,821,33.333333333333336,-0.465,-0.489,0.743
200903,1755603441624,27.94,-33.13,-25.52,774,781,770,304,822,33.333333333333336,-0.463,-0.486,0.744
200933,1755603441654,27.95,-33.16,-25.52,775,778,771,367,819,33.333333333333336,-0.464,-0.487,0.744
200963,1755603441684,27.95,-33.17,-25.52,775,776,776,452,829,33.333333333333336,-0.464,-0.486,0.743
201023,1755603441744,27.98,-33.22,-25.54,772,776,773,299,816,33.333333333333336,-0.465,-0.487,0.743
201053,1755603441774,27.97,-33.22,-25.55,782,779,778,313,821,33.333333333333336,-0.464,-0.487,0.742
201083,1755603441803,27.97,-33.23,-25.57,781,779,773,381,821,33.333333333333336,-0.464,-0.489,0.743
201113,1755603441833,27.98,-33.24,-25.56,776,779,776,449,808,33.333333333333336,-0.464,-0.491,0.743
201142,1755603441863,27.96,-33.2,-25.57,776,775,777,367,828,34.48275862068966,-0.462,-0.489,0.742
201172,1755603441893,27.99,-33.19,-25.57,778,772,772,288,822,33.333333333333336,-0.463,-0.488,0.743
201202,1755603441923,28.0,-33.21,-25.57,774,781,764,318,816,33.333333333333336,-0.464,-0.49,0.742
201232,1755603441953,27.98,-33.18,-25.56,785,781,768,425,819,33.333333333333336,-0.463,-0.489,0.743
201262,1755603441982,27.98,-33.17,-25.56,782,781,782,442,821,33.333333333333336,-0.462,-0.488,0.743
201292,1755603442012,28.04,-33.2,-25.56,769,780,775,389,819,33.333333333333336,-0.464,-0.487,0.743
201341,1755603442062,28.01,-33.24,-25.57,777,780,772,361,816,33.333333333333336,-0.466,-0.487,0.74
201371,1755603442092,27.99,-33.26,-25.58,777,775,774,292,818,33.333333333333336,-0.466,-0.489,0.741
201401,1755603442122,28.0,-33.26,-25.57,783,777,773,328,820,33.333333333333336,-0.465,-0.49,0.742
201461,1755603442181,27.97,-33.22,-25.57,777,777,773,426,815,33.333333333333336,-0.464,-0.488,0.741
201490,1755603442211,27.97,-33.21,-25.57,776,773,783,340,817,34.48275862068966,-0.465,-0.489,0.741
201520,1755603442241,27.97,-33.2,-25.56,775,783,771,311,813,33.333333333333336,-0.465,-0.49,0.741
201540,1755603442261,27.96,-33.18,-25.55,776,779,776,377,831,50.0,-0.464,-0.489,0.742
201570,1755603442291,27.94,-33.17,-25.57,773,780,771,344,820,33.333333333333336,-0.462,-0.487,0.742
201600,1755603442321,27.97,-33.19,-25.58,779,780,775,366,818,33.333333333333336,-0.463,-0.488,0.742
201630,1755603442351,27.98,-33.18,-25.57,774,777,771,431,814,33.333333333333336,-0.465,-0.489,0.742
201660,1755603442380,27.94,-33.13,-25.57,772,779,765,419,821,33.333333333333336,-0.463,-0.486,0.742
201690,1755603442411,27.98,-33.15,-25.59,773,781,773,320,821,33.333333333333336,-0.462,-0.485,0.742
201710,1755603442430,28.01,-33.19,-25.6,770,782,772,425,819,50.0,-0.464,-0.487,0.743
201760,1755603442480,27.99,-33.15,-25.59,777,781,774,426,818,50.0,-0.466,-0.487,0.741
201789,1755603442511,27.98,-33.16,-25.58,772,784,782,334,822,34.48275862068966,-0.465,-0.487,0.742
201810,1755603442530,27.99,-33.15,-25.58,783,779,774,453,827,47.61904761904762,-0.465,-0.487,0.743
201840,1755603442560,28.0,-33.15,-25.57,781,777,772,334,819,33.333333333333336,-0.464,-0.488,0.743
201869,1755603442590,28.0,-33.16,-25.57,772,781,774,327,818,34.48275862068966,-0.465,-0.488,0.743
201899,1755603442620,27.97,-33.12,-25.57,781,777,775,388,820,33.333333333333336,-0.464,-0.487,0.743
201929,1755603442650,27.99,-33.11,-25.57,774,778,772,439,819,33.333333333333336,-0.463,-0.486,0.742
201949,1755603442670,28.0,-33.12,-25.57,779,779,774,354,820,50.0,-0.463,-0.485,0.742
201969,1755603442690,28.0,-33.13,-25.57,779,781,778,284,819,50.0,-0.464,-0.485,0.743
201989,1755603442710,28.01,-33.12,-25.57,780,782,769,355,818,50.0,-0.465,-0.486,0.743
202039,1755603442760,28.01,-33.13,-25.57,776,781,766,290,825,34.48275862068966,-0.466,-0.486,0.741
202069,1755603442790,27.99,-33.1,-25.57,780,780,774,315,820,33.333333333333336,-0.464,-0.485,0.742
202089,1755603442810,27.99,-33.1,-25.58,783,778,776,330,812,50.0,-0.462,-0.485,0.742
202119,1755603442840,28.02,-33.13,-25.58,781,787,770,342,822,33.333333333333336,-0.464,-0.485,0.742
202149,1755603442870,28.03,-33.12,-25.57,777,773,774,402,816,33.333333333333336,-0.464,-0.485,0.743
202179,1755603442900,28.04,-33.13,-25.58,779,780,767,450,815,33.333333333333336,-0.463,-0.485,0.741
202199,1755603442920,28.05,-33.15,-25.59,777,777,765,333,821,50.0,-0.464,-0.485,0.742
202229,1755603442950,28.05,-33.16,-25.59,772,776,773,414,816,33.333333333333336,-0.465,-0.485,0.742
202259,1755603442980,28.05,-33.15,-25.58,778,781,771,349,822,33.333333333333336,-0.466,-0.486,0.741
202289,1755603443010,28.02,-33.13,-25.58,775,774,772,291,816,33.333333333333336,-0.464,-0.486,0.741
202319,1755603443039,27.99,-33.14,-25.6,778,778,769,314,820,33.333333333333336,-0.462,-0.484,0.741
202349,1755603443069,27.99,-33.16,-25.61,777,775,771,414,820,33.333333333333336,-0.464,-0.485,0.741
202378,1755603443099,28.0,-33.17,-25.59,778,774,772,391,811,34.48275862068966,-0.467,-0.487,0.742
202408,1755603443130,27.98,-33.17,-25.58,775,772,768,387,821,33.333333333333336,-0.466,-0.487,0.741
202429,1755603443149,27.96,-33.17,-25.58,778,779,770,425,813,47.61904761904762,-0.462,-0.485,0.74
202459,1755603443180,27.95,-33.19,-25.59,778,776,770,393,824,33.333333333333336,-0.462,-0.486,0.74
202479,1755603443200,27.93,-33.17,-25.6,778,780,775,406,813,50.0,-0.464,-0.487,0.742
202499,1755603443219,27.93,-33.16,-25.6,772,777,771,360,820,50.0,-0.465,-0.486,0.742
202528,1755603443249,27.97,-33.18,-25.61,779,777,771,366,818,34.48275862068966,-0.465,-0.486,0.741
202558,1755603443279,27.99,-33.2,-25.61,775,781,768,362,830,33.333333333333336,-0.464,-0.485,0.742
202588,1755603443310,28.01,-33.21,-25.64,775,778,773,297,822,33.333333333333336,-0.461,-0.484,0.742
202609,1755603443329,28.01,-33.22,-25.67,778,776,767,419,817,47.61904761904762,-0.461,-0.484,0.741
202638,1755603443359,28.04,-33.25,-25.68,774,779,772,323,809,34.48275862068966,-0.463,-0.486,0.741
202659,1755603443380,28.05,-33.27,-25.68,779,782,776,425,809,47.61904761904762,-0.465,-0.489,0.742
202709,1755603443429,28.07,-33.73,-25.67,778,778,775,395,822,33.333333333333336,-0.465,-0.488,0.739
202758,1755603443480,28.03,-33.71,-25.67,781,779,778,426,821,50.0,-0.465,-0.49,0.742
202788,1755603443509,28.02,-33.68,-25.67,773,776,770,327,823,33.333333333333336,-0.464,-0.488,0.741
202808,1755603443529,28.03,-33.67,-25.68,778,778,770,439,814,50.0,-0.464,-0.487,0.74
202828,1755603443549,28.05,-33.69,-25.68,771,769,772,450,820,50.0,-0.465,-0.487,0.74
202858,1755603443579,28.04,-33.67,-25.69,770,780,769,402,821,33.333333333333336,-0.464,-0.486,0.741
202888,1755603443609,28.03,-33.66,-25.72,773,780,776,325,826,33.333333333333336,-0.463,-0.485,0.74
202918,1755603443639,28.06,-33.7,-25.74,777,774,781,349,818,33.333333333333336,-0.464,-0.487,0.741
202948,1755603443669,28.07,-33.71,-25.76,769,777,780,437,819,33.333333333333336,-0.462,-0.487,0.742
202978,1755603443699,28.11,-33.74,-25.78,773,777,774,436,823,33.333333333333336,-0.462,-0.487,0.741
202998,1755603443719,28.12,-33.76,-25.8,769,776,779,401,819,50.0,-0.463,-0.488,0.741
203018,1755603443739,28.13,-33.77,-25.82,780,777,773,291,814,50.0,-0.464,-0.489,0.74
203038,1755603443759,28.15,-33.79,-25.84,777,782,771,320,818,50.0,-0.464,-0.49,0.74
203058,1755603443779,28.16,-33.81,-25.86,773,783,768,439,811,50.0,-0.464,-0.491,0.739
203088,1755603443809,28.2,-33.84,-25.88,772,784,771,324,816,33.333333333333336,-0.465,-0.493,0.738
203118,1755603443839,28.22,-33.86,-25.88,773,784,770,338,820,33.333333333333336,-0.465,-0.493,0.739
203148,1755603443869,28.26,-33.87,-25.9,776,780,777,426,821,33.333333333333336,-0.465,-0.493,0.737
203178,1755603443899,28.28,-33.91,-25.89,778,776,770,429,815,33.333333333333336,-0.468,-0.493,0.736
203198,1755603443919,28.29,-33.92,-25.88,777,779,774,374,820,50.0,-0.471,-0.494,0.735
203218,1755603443940,28.29,-33.92,-25.87,773,782,772,252,821,50.0,-0.472,-0.495,0.736
203239,1755603443960,28.26,-33.9,-25.86,773,771,775,320,816,47.61904761904762,-0.469,-0.496,0.735
203259,1755603443980,28.24,-33.87,-25.85,774,778,772,452,813,50.0,-0.467,-0.495,0.734
203289,1755603444010,28.22,-33.87,-25.84,772,775,771,335,827,33.333333333333336,-0.466,-0.495,0.735
203319,1755603444039,28.21,-33.85,-25.82,779,778,773,347,821,33.333333333333336,-0.467,-0.495,0.736
203349,1755603444069,28.19,-33.8,-25.81,775,776,774,429,820,33.333333333333336,-0.466,-0.493,0.736
203378,1755603444099,28.19,-33.81,-25.82,774,768,775,429,822,34.48275862068966,-0.466,-0.491,0.736
203408,1755603444129,28.17,-33.82,-25.82,777,778,778,380,824,33.333333333333336,-0.467,-0.493,0.736
203438,1755603444159,28.16,-33.8,-25.8,779,777,775,318,819,33.333333333333336,-0.467,-0.493,0.738
203498,1755603444219,28.14,-33.78,-25.84,779,776,772,446,819,33.333333333333336,-0.464,-0.49,0.737
203528,1755603444248,28.17,-33.82,-25.83,776,779,770,426,818,33.333333333333336,-0.467,-0.492,0.738
203558,1755603444278,28.16,-33.81,-25.84,775,782,772,362,822,33.333333333333336,-0.466,-0.49,0.737
203587,1755603444308,28.14,-33.8,-25.87,777,778,778,284,816,34.48275862068966,-0.465,-0.49,0.736
203617,1755603444338,28.16,-33.85,-25.89,773,779,773,337,817,33.333333333333336,-0.466,-0.492,0.737
203647,1755603444368,28.19,-33.86,-25.9,776,780,776,425,818,33.333333333333336,-0.466,-0.493,0.738
203677,1755603444398,28.19,-33.85,-25.92,769,786,780,421,815,33.333333333333336,-0.465,-0.491,0.737
203707,1755603444427,28.2,-33.86,-25.96,776,780,774,329,818,33.333333333333336,-0.465,-0.492,0.736
203737,1755603444457,28.21,-33.87,-25.97,778,779,770,325,817,33.333333333333336,-0.468,-0.495,0.737
203796,1755603444517,28.23,-33.87,-25.97,776,780,765,446,818,33.333333333333336,-0.464,-0.492,0.737
203816,1755603444537,28.23,-33.88,-25.99,781,778,771,344,814,50.0,-0.465,-0.492,0.736
203846,1755603444567,28.22,-33.91,-26.0,778,772,773,416,820,33.333333333333336,-0.468,-0.495,0.736
203876,1755603444597,28.21,-33.89,-25.99,769,777,780,388,816,33.333333333333336,-0.467,-0.495,0.736
203906,1755603444626,28.22,-33.89,-25.99,773,777,774,298,814,33.333333333333336,-0.465,-0.494,0.735
203936,1755603444656,28.22,-33.9,-26.0,778,777,774,306,811,33.333333333333336,-0.465,-0.494,0.735
203966,1755603444686,28.19,-33.88,-26.01,779,769,776,394,820,33.333333333333336,-0.464,-0.493,0.735
203995,1755603444716,28.19,-33.88,-26.02,774,777,775,416,821,34.48275862068966,-0.465,-0.494,0.735
204025,1755603444746,28.21,-33.89,-26.01,777,783,772,376,816,33.333333333333336,-0.467,-0.495,0.734
204085,1755603444806,28.17,-33.86,-26.01,778,784,772,332,821,33.333333333333336,-0.463,-0.492,0.735
204115,1755603444836,28.22,-33.9,-26.03,777,767,770,429,823,33.333333333333336,-0.466,-0.495,0.734
204165,1755603444886,28.2,-33.9,-26.03,773,777,771,369,817,50.0,-0.465,-0.495,0.732
204195,1755603444916,28.18,-33.9,-26.04,775,782,773,393,820,33.333333333333336,-0.467,-0.497,0.733
204225,1755603444945,28.15,-33.87,-26.05,779,777,775,346,819,33.333333333333336,-0.466,-0.496,0.733
204255,1755603444975,28.13,-33.85,-26.07,770,777,776,298,824,33.333333333333336,-0.465,-0.493,0.733
