timestamp_ms,recv_timestamp_ms,pitch,roll,yaw,flex1,flex2,flex3,flex4,flex5,sampling_hz,accel_x,accel_y,accel_z
106837,1755598724574,33.72,-54.21,-20.48,803,767,774,841,850,33.333333333333336,-0.548,-0.678,0.487
106866,1755598724576,33.74,-54.18,-20.48,805,770,781,840,848,34.48275862068966,-0.548,-0.679,0.488
106896,1755598724578,33.72,-54.18,-20.48,806,770,771,846,843,33.333333333333336,-0.548,-0.681,0.486
106926,1755598724580,33.69,-54.2,-20.48,807,766,773,842,846,33.333333333333336,-0.548,-0.681,0.483
106956,1755598724582,33.69,-54.21,-20.47,808,775,778,845,849,33.333333333333336,-0.547,-0.68,0.484
107006,1755598724586,33.61,-54.15,-20.49,807,771,774,844,848,50.0,-0.545,-0.677,0.489
107036,1755598724588,33.58,-54.17,-20.51,801,761,781,839,849,33.333333333333336,-0.545,-0.678,0.489
107096,1755598724592,33.6,-54.16,-20.49,811,771,774,840,826,33.333333333333336,-0.546,-0.679,0.489
107126,1755598724594,33.52,-54.13,-20.51,808,767,773,841,847,33.333333333333336,-0.546,-0.678,0.488
107156,1755598724596,33.53,-54.14,-20.53,803,769,776,841,847,33.333333333333336,-0.547,-0.68,0.489
107206,1755598724601,33.57,-54.17,-20.51,800,762,773,840,845,47.61904761904762,-0.545,-0.681,0.488
107226,1755598724603,33.56,-54.16,-20.51,810,772,771,845,848,50.0,-0.545,-0.679,0.489
107256,1755598724604,33.53,-54.1,-20.52,806,768,771,842,851,33.333333333333336,-0.545,-0.678,0.49
107286,1755598724607,33.54,-54.08,-20.52,807,776,777,843,848,33.333333333333336,-0.545,-0.678,0.489
107316,1755598724608,33.55,-54.12,-20.52,807,771,779,843,844,33.333333333333336,-0.546,-0.679,0.487
107345,1755598724610,33.55,-54.12,-20.52,803,761,773,839,838,34.48275862068966,-0.547,-0.68,0.486
107375,1755598724613,33.56,-54.17,-20.52,805,766,779,832,841,33.333333333333336,-0.547,-0.681,0.488
107405,1755598724615,33.49,-54.17,-20.51,812,762,772,841,843,33.333333333333336,-0.546,-0.68,0.49
107425,1755598724617,33.52,-54.15,-20.5,805,764,770,846,846,50.0,-0.547,-0.68,0.492
107445,1755598724619,33.51,-54.13,-20.49,808,780,773,852,849,50.0,-0.546,-0.68,0.493
107485,1755598724623,33.52,-54.17,-20.49,806,768,781,843,850,50.0,-0.545,-0.679,0.488
107505,1755598724625,33.48,-54.17,-20.5,807,771,783,844,850,50.0,-0.547,-0.681,0.489
107526,1755598724628,33.47,-54.14,-20.48,810,768,774,846,851,47.61904761904762,-0.548,-0.682,0.49
107546,1755598724630,33.47,-54.09,-20.45,809,766,777,837,834,50.0,-0.548,-0.682,0.491
107586,1755598724634,33.53,-54.09,-20.43,804,766,776,842,849,50.0,-0.543,-0.678,0.488
107646,1755598724639,33.46,-54.11,-20.47,812,771,776,843,846,33.333333333333336,-0.547,-0.678,0.491
107666,1755598724641,33.46,-54.07,-20.47,811,762,776,844,842,50.0,-0.547,-0.678,0.494
107696,1755598724644,33.49,-54.05,-20.46,812,768,776,841,839,33.333333333333336,-0.544,-0.678,0.493
107725,1755598724646,33.48,-54.06,-20.48,805,775,773,852,850,34.48275862068966,-0.543,-0.678,0.49
107755,1755598724649,33.47,-54.05,-20.5,810,769,777,843,851,33.333333333333336,-0.545,-0.678,0.489
107805,1755598724653,33.47,-54.05,-20.51,804,767,773,840,849,33.333333333333336,-0.547,-0.679,0.49
107835,1755598724655,33.48,-54.05,-20.51,808,773,778,845,845,33.333333333333336,-0.546,-0.679,0.49
107855,1755598724657,33.47,-54.06,-20.51,805,773,781,841,834,50.0,-0.544,-0.679,0.49
107885,1755598724659,33.49,-54.08,-20.52,805,777,776,836,848,33.333333333333336,-0.544,-0.678,0.488
107915,1755598724661,33.5,-54.12,-20.53,808,772,781,843,843,33.333333333333336,-0.546,-0.68,0.489
107935,1755598724664,33.5,-54.11,-20.53,810,770,780,844,847,50.0,-0.546,-0.68,0.489
107994,1755598724668,33.47,-54.05,-20.51,807,766,777,843,848,34.48275862068966,-0.543,-0.678,0.488
108054,1755598724672,33.46,-54.03,-20.52,806,766,783,843,844,33.333333333333336,-0.544,-0.678,0.489
108084,1755598724674,33.43,-54.03,-20.53,804,768,778,852,850,33.333333333333336,-0.546,-0.68,0.49
108104,1755598724676,33.41,-54.04,-20.53,810,770,773,838,846,50.0,-0.546,-0.681,0.488
108134,1755598724678,33.43,-54.02,-20.5,811,761,770,835,844,33.333333333333336,-0.547,-0.682,0.487
108164,1755598724680,33.45,-54.01,-20.48,812,771,779,846,849,33.333333333333336,-0.546,-0.68,0.486
108215,1755598724683,33.39,-54.04,-20.03,804,767,774,841,847,33.333333333333336,-0.546,-0.678,0.49
108244,1755598724686,33.43,-54.0,-20.01,815,775,772,843,844,34.48275862068966,-0.547,-0.679,0.492
108304,1755598724690,33.39,-53.96,-20.02,806,780,768,852,841,33.333333333333336,-0.545,-0.677,0.489
108364,1755598724694,33.41,-53.91,-20.0,806,758,774,841,851,33.333333333333336,-0.548,-0.679,0.49
108394,1755598724696,33.38,-53.93,-20.0,802,774,770,842,844,33.333333333333336,-0.546,-0.677,0.489
108453,1755598724700,33.44,-53.97,-20.01,809,773,773,839,843,34.48275862068966,-0.546,-0.677,0.491
108483,1755598724702,33.44,-54.0,-20.01,810,772,773,843,848,33.333333333333336,-0.545,-0.677,0.491
117991,1755598724705,33.11,-54.53,-20.44,806,769,772,842,850,0.1051745898190997,-0.541,-0.687,0.487
118021,1755598724707,33.16,-54.54,-20.43,810,761,776,842,845,33.333333333333336,-0.541,-0.686,0.488
118050,1755598724709,33.12,-54.5,-20.44,806,771,775,839,842,34.48275862068966,-0.54,-0.684,0.487
118080,1755598724711,33.12,-54.48,-20.46,809,760,774,838,840,33.333333333333336,-0.541,-0.684,0.485
118100,1755598724713,33.11,-54.47,-20.46,807,770,777,841,845,50.0,-0.541,-0.684,0.484
118130,1755598724714,33.15,-54.53,-20.47,807,772,781,839,850,33.333333333333336,-0.542,-0.686,0.486
118160,1755598724717,33.13,-54.52,-20.45,806,765,775,845,846,33.333333333333336,-0.542,-0.686,0.488
118190,1755598724719,32.71,-54.48,-20.44,806,769,775,839,847,33.333333333333336,-0.539,-0.685,0.487
118210,1755598724721,32.75,-54.48,-20.44,812,764,775,846,844,50.0,-0.537,-0.684,0.486
118320,1755598724730,32.76,-54.49,-20.41,809,770,780,836,848,33.333333333333336,-0.541,-0.683,0.484
118350,1755598724732,32.7,-54.49,-20.44,806,768,777,846,845,33.333333333333336,-0.54,-0.683,0.484
118409,1755598724737,32.73,-54.55,-20.43,809,771,771,842,840,33.333333333333336,-0.541,-0.686,0.484
118429,1755598724739,32.79,-54.58,-20.42,808,769,772,835,848,50.0,-0.541,-0.686,0.485
118449,1755598724741,32.79,-54.59,-20.42,806,767,768,842,841,50.0,-0.541,-0.684,0.485
118479,1755598724744,32.78,-54.58,-20.43,811,763,783,845,843,33.333333333333336,-0.54,-0.683,0.485
118529,1755598724748,32.75,-54.51,-20.44,813,770,775,839,846,50.0,-0.541,-0.684,0.485
118559,1755598724750,32.77,-54.53,-20.45,804,765,780,843,845,33.333333333333336,-0.541,-0.685,0.483
118589,1755598724752,32.79,-54.54,-20.45,808,765,780,845,841,33.333333333333336,-0.54,-0.685,0.483
118619,1755598724754,32.85,-54.58,-20.45,806,767,776,844,830,33.333333333333336,-0.541,-0.685,0.484
118649,1755598724756,32.82,-54.57,-20.45,806,771,776,841,843,33.333333333333336,-0.541,-0.685,0.485
118679,1755598724758,32.83,-54.59,-20.46,812,774,776,844,849,33.333333333333336,-0.54,-0.684,0.485
118708,1755598724760,32.87,-54.6,-20.48,813,769,779,837,843,34.48275862068966,-0.54,-0.685,0.484
118768,1755598724764,32.85,-54.58,-20.49,806,771,778,840,847,33.333333333333336,-0.541,-0.684,0.482
118828,1755598724768,32.81,-54.54,-20.51,805,764,774,839,845,33.333333333333336,-0.543,-0.686,0.482
118887,1755598724772,32.83,-54.54,-20.48,809,769,773,839,846,34.48275862068966,-0.538,-0.687,0.484
118917,1755598724774,32.85,-54.62,-20.49,804,767,778,837,844,33.333333333333336,-0.538,-0.686,0.483
118977,1755598724778,32.87,-54.57,-20.48,811,768,778,834,843,33.333333333333336,-0.542,-0.687,0.486
119007,1755598724780,32.85,-54.56,-20.47,804,768,776,842,842,33.333333333333336,-0.54,-0.686,0.484
119037,1755598724782,32.84,-54.62,-20.49,814,772,776,838,836,33.333333333333336,-0.54,-0.685,0.484
119096,1755598724786,32.87,-54.6,-20.5,809,765,773,844,840,33.333333333333336,-0.54,-0.686,0.486
119126,1755598724788,32.85,-54.59,-20.49,805,764,771,851,847,33.333333333333336,-0.539,-0.687,0.486
119215,1755598724794,32.88,-54.62,-20.51,808,766,778,837,841,34.48275862068966,-0.542,-0.686,0.486
119245,1755598724796,32.91,-54.6,-20.51,814,771,776,845,845,33.333333333333336,-0.542,-0.687,0.487
119275,1755598724798,32.9,-54.59,-20.51,811,772,779,840,844,33.333333333333336,-0.54,-0.686,0.485
119305,1755598724800,32.89,-54.58,-20.52,804,762,774,837,839,33.333333333333336,-0.54,-0.686,0.483
119365,1755598724804,32.91,-54.58,-20.52,809,774,774,844,851,33.333333333333336,-0.54,-0.687,0.484
119395,1755598724806,32.89,-54.61,-20.52,810,767,777,842,845,33.333333333333336,-0.54,-0.687,0.485
119425,1755598724808,32.89,-54.59,-20.53,806,763,766,844,844,33.333333333333336,-0.54,-0.686,0.486
119445,1755598724810,32.88,-54.57,-20.54,807,768,771,839,842,50.0,-0.54,-0.686,0.485
119465,1755598724812,32.89,-54.57,-20.55,807,772,777,844,833,50.0,-0.54,-0.686,0.484
119495,1755598724814,32.9,-54.56,-20.55,804,759,775,836,843,33.333333333333336,-0.541,-0.686,0.484
119525,1755598724816,32.87,-54.55,-20.56,811,765,773,842,842,33.333333333333336,-0.541,-0.687,0.483
119555,1755598724818,32.84,-54.55,-20.57,814,763,777,843,839,33.333333333333336,-0.54,-0.688,0.483
119605,1755598724822,32.87,-54.61,-20.56,807,768,768,841,843,33.333333333333336,-0.539,-0.687,0.485
119625,1755598724825,32.9,-54.59,-20.55,809,769,771,841,846,50.0,-0.539,-0.686,0.486
119685,1755598724829,32.87,-54.51,-20.56,809,771,774,845,847,33.333333333333336,-0.539,-0.686,0.483
119715,1755598724831,32.84,-54.57,-20.59,806,769,769,843,842,33.333333333333336,-0.539,-0.687,0.481
119774,1755598724835,32.91,-54.58,-20.55,814,771,782,843,846,34.48275862068966,-0.541,-0.688,0.486
119804,1755598724838,32.92,-54.53,-20.54,810,765,772,835,842,33.333333333333336,-0.539,-0.685,0.485
119864,1755598724842,32.87,-54.61,-20.6,810,768,777,836,850,33.333333333333336,-0.54,-0.687,0.484
119894,1755598724843,32.9,-54.57,-20.59,803,773,777,845,848,33.333333333333336,-0.541,-0.689,0.485
119924,1755598724846,32.89,-54.52,-20.56,805,768,776,840,847,33.333333333333336,-0.54,-0.687,0.483
119944,1755598724847,32.89,-54.52,-20.56,807,772,779,850,849,50.0,-0.538,-0.685,0.482
119974,1755598724850,32.88,-54.54,-20.59,806,766,775,835,849,33.333333333333336,-0.538,-0.685,0.483
120003,1755598724852,32.87,-54.55,-20.6,811,774,776,841,843,34.48275862068966,-0.539,-0.686,0.484
120033,1755598724854,32.9,-54.53,-20.57,807,770,774,840,848,33.333333333333336,-0.541,-0.687,0.486
120063,1755598724856,32.92,-54.48,-20.56,809,777,775,841,849,33.333333333333336,-0.539,-0.685,0.486
120113,1755598724860,32.87,-54.47,-20.6,806,772,770,838,848,50.0,-0.538,-0.686,0.483
120143,1755598724863,32.89,-54.5,-20.6,813,767,774,840,838,33.333333333333336,-0.538,-0.685,0.483
120173,1755598724864,32.96,-54.49,-20.6,805,774,773,837,845,33.333333333333336,-0.54,-0.686,0.483
120203,1755598724867,32.94,-54.5,-20.6,806,773,774,843,846,33.333333333333336,-0.54,-0.686,0.483
120262,1755598724872,32.93,-54.56,-20.65,809,766,779,846,846,33.333333333333336,-0.54,-0.686,0.486
120292,1755598724874,32.96,-54.55,-20.64,807,771,774,836,847,33.333333333333336,-0.54,-0.687,0.485
120382,1755598724880,32.92,-54.53,-20.67,810,768,771,844,844,33.333333333333336,-0.539,-0.687,0.484
120411,1755598724882,32.94,-54.58,-20.67,808,757,773,840,847,34.48275862068966,-0.54,-0.687,0.485
120441,1755598724884,32.96,-54.58,-20.66,810,766,785,842,848,33.333333333333336,-0.539,-0.687,0.485
120471,1755598724886,32.95,-54.58,-20.67,804,763,771,842,847,33.333333333333336,-0.538,-0.687,0.484
120501,1755598724888,32.92,-54.61,-20.68,806,771,781,845,849,33.333333333333336,-0.538,-0.688,0.484
120531,1755598724890,32.95,-54.64,-20.67,805,763,775,841,842,33.333333333333336,-0.539,-0.688,0.485
120561,1755598724892,32.97,-54.64,-20.66,808,770,777,841,845,33.333333333333336,-0.539,-0.688,0.483
120591,1755598724894,32.94,-54.67,-20.67,803,771,771,841,847,33.333333333333336,-0.539,-0.688,0.482
120611,1755598724896,32.93,-54.68,-20.68,810,768,775,843,843,50.0,-0.54,-0.688,0.483
120641,1755598724898,32.94,-54.66,-20.67,804,767,768,842,840,33.333333333333336,-0.54,-0.689,0.484
120671,1755598724900,32.9,-54.67,-20.66,800,763,776,842,842,33.333333333333336,-0.539,-0.689,0.483
120701,1755598724902,32.87,-54.71,-20.66,806,770,773,842,850,33.333333333333336,-0.54,-0.689,0.482
120721,1755598724904,32.88,-54.72,-20.64,808,768,772,836,833,50.0,-0.54,-0.689,0.483
120741,1755598724906,32.93,-54.7,-20.62,808,769,779,845,842,50.0,-0.539,-0.687,0.484
120771,1755598724908,32.96,-54.67,-20.63,803,766,777,842,848,33.333333333333336,-0.539,-0.687,0.485
120800,1755598724910,32.91,-54.67,-20.65,806,765,780,839,848,34.48275862068966,-0.54,-0.689,0.483
120830,1755598724912,32.91,-54.64,-20.61,811,770,766,842,843,33.333333333333336,-0.542,-0.69,0.483
120860,1755598724914,32.95,-54.61,-20.58,807,766,776,846,844,33.333333333333336,-0.54,-0.687,0.484
120890,1755598724916,32.9,-54.58,-20.59,813,770,775,845,839,33.333333333333336,-0.539,-0.686,0.485
120920,1755598724918,32.84,-54.43,-20.57,811,774,780,844,851,33.333333333333336,-0.541,-0.685,0.488
120950,1755598724920,32.76,-54.12,-20.51,811,762,771,836,846,33.333333333333336,-0.543,-0.686,0.49
120980,1755598724923,32.71,-53.89,-20.48,803,766,777,839,848,33.333333333333336,-0.541,-0.685,0.489
121039,1755598724927,32.41,-53.2,-20.39,809,767,774,831,844,34.48275862068966,-0.543,-0.682,0.496
124355,1755598726051,32.61,-52.62,-20.87,810,767,771,831,841,33.333333333333336,-0.537,-0.672,0.51
124384,1755598726081,32.6,-52.57,-20.88,808,765,777,834,839,34.48275862068966,-0.537,-0.671,0.511
124414,1755598726111,32.59,-52.58,-20.9,808,780,776,833,834,33.333333333333336,-0.536,-0.672,0.509
124444,1755598726140,32.6,-52.62,-20.91,809,774,773,834,834,33.333333333333336,-0.536,-0.673,0.508
124474,1755598726170,32.61,-52.61,-20.89,810,763,771,830,840,33.333333333333336,-0.538,-0.674,0.51
124504,1755598726200,32.58,-52.59,-20.89,806,770,776,829,840,33.333333333333336,-0.535,-0.672,0.511
124534,1755598726230,32.59,-52.51,-20.88,806,765,775,833,836,33.333333333333336,-0.536,-0.673,0.513
124564,1755598726260,32.56,-52.53,-20.9,808,773,776,833,836,33.333333333333336,-0.536,-0.672,0.51
124594,1755598726290,32.53,-52.52,-20.88,805,768,768,819,844,33.333333333333336,-0.537,-0.673,0.51
124623,1755598726320,32.49,-52.58,-20.9,808,768,779,841,840,34.48275862068966,-0.534,-0.67,0.509
