timestamp_ms,recv_timestamp_ms,pitch,roll,yaw,flex1,flex2,flex3,flex4,flex5,sampling_hz,accel_x,accel_y,accel_z
83201,1755606953145,61.59,-68.23,-44.57,784,779,781,414,869,33.333333333333336,-0.886,-0.435,0.172
83231,1755606953147,61.57,-68.31,-44.57,780,776,780,389,865,33.333333333333336,-0.886,-0.434,0.171
83260,1755606953149,61.54,-68.29,-44.56,781,774,782,358,867,34.48275862068966,-0.886,-0.432,0.173
83290,1755606953151,61.48,-68.29,-44.55,780,775,778,378,871,33.333333333333336,-0.886,-0.432,0.174
83319,1755606953153,61.47,-68.34,-44.56,782,778,781,414,877,34.48275862068966,-0.886,-0.434,0.173
83349,1755606953155,61.49,-68.43,-44.56,780,767,782,408,876,33.333333333333336,-0.886,-0.435,0.172
83408,1755606953159,61.43,-68.47,-44.57,782,778,777,352,869,34.48275862068966,-0.885,-0.431,0.175
83438,1755606953161,61.45,-68.48,-44.59,784,778,778,394,871,33.333333333333336,-0.886,-0.433,0.176
83468,1755606953163,61.42,-68.48,-44.58,781,773,778,418,872,33.333333333333336,-0.886,-0.434,0.176
83497,1755606953165,61.45,-68.47,-44.58,781,780,778,391,870,34.48275862068966,-0.887,-0.434,0.174
83527,1755606953166,61.44,-68.44,-44.59,784,770,780,342,869,33.333333333333336,-0.885,-0.432,0.173
83557,1755606953168,61.46,-68.45,-44.6,778,774,779,355,866,33.333333333333336,-0.885,-0.432,0.173
83586,1755606953170,61.44,-68.46,-44.6,783,769,778,406,868,34.48275862068966,-0.884,-0.434,0.174
83616,1755606953172,61.43,-68.44,-44.58,780,776,781,412,862,33.333333333333336,-0.885,-0.434,0.175
83645,1755606953175,61.46,-68.42,-44.59,779,773,782,364,878,34.48275862068966,-0.885,-0.432,0.174
83675,1755606953176,61.46,-68.38,-44.58,781,776,782,354,869,33.333333333333336,-0.885,-0.433,0.175
83704,1755606953178,61.43,-68.35,-44.58,784,774,780,389,875,34.48275862068966,-0.885,-0.433,0.174
83734,1755606953180,61.45,-68.35,-44.58,779,768,780,414,869,33.333333333333336,-0.885,-0.433,0.173
83764,1755606953183,61.49,-68.36,-44.59,781,772,778,376,872,33.333333333333336,-0.885,-0.432,0.174
83793,1755606953185,61.49,-68.36,-44.59,784,774,777,346,869,34.48275862068966,-0.886,-0.432,0.172
83823,1755606953187,61.49,-68.37,-44.59,780,777,782,351,868,33.333333333333336,-0.886,-0.432,0.173
83852,1755606953189,61.48,-68.33,-44.59,784,776,776,369,865,34.48275862068966,-0.886,-0.434,0.175
83912,1755606953193,61.45,-68.27,-44.59,784,768,775,349,871,33.333333333333336,-0.885,-0.432,0.173
83941,1755606953195,61.54,-68.29,-44.61,783,779,781,338,869,34.48275862068966,-0.885,-0.432,0.173
83971,1755606953197,61.61,-68.3,-44.65,778,779,782,402,877,33.333333333333336,-0.887,-0.432,0.174
84000,1755606953199,61.59,-68.27,-44.65,780,773,780,413,865,34.48275862068966,-0.887,-0.434,0.173
84059,1755606953203,61.59,-68.29,-44.66,784,773,784,332,871,34.48275862068966,-0.888,-0.433,0.172
84089,1755606953205,61.55,-68.27,-44.66,782,777,775,372,865,33.333333333333336,-0.886,-0.433,0.173
84118,1755606953207,61.59,-68.28,-44.69,781,775,779,407,866,34.48275862068966,-0.886,-0.433,0.171
84148,1755606953209,61.58,-68.25,-44.69,779,779,781,384,869,33.333333333333336,-0.887,-0.433,0.171
84177,1755606953212,61.51,-68.24,-44.68,780,775,777,338,868,34.48275862068966,-0.887,-0.434,0.171
84207,1755606953214,61.52,-68.24,-44.69,784,774,777,353,869,33.333333333333336,-0.886,-0.434,0.172
84236,1755606953215,61.49,-68.26,-44.68,782,772,781,418,866,34.48275862068966,-0.886,-0.433,0.174
84266,1755606953218,61.45,-68.21,-44.67,782,778,781,402,870,33.333333333333336,-0.887,-0.433,0.175
84295,1755606953220,61.49,-68.18,-44.68,785,779,777,367,871,34.48275862068966,-0.885,-0.435,0.174
84325,1755606953222,61.53,-68.23,-44.69,784,773,780,354,865,33.333333333333336,-0.885,-0.434,0.174
84355,1755606953224,61.48,-68.22,-44.69,781,778,780,397,867,33.333333333333336,-0.887,-0.433,0.173
84384,1755606953227,61.45,-68.19,-44.7,781,774,782,405,869,34.48275862068966,-0.887,-0.433,0.173
84443,1755606953231,61.45,-68.24,-44.72,783,779,782,325,867,34.48275862068966,-0.886,-0.435,0.174
84473,1755606953233,61.43,-68.21,-44.7,781,775,781,352,868,33.333333333333336,-0.884,-0.433,0.174
84503,1755606953234,61.47,-68.24,-44.71,779,774,776,395,867,33.333333333333336,-0.886,-0.434,0.174
84532,1755606953237,61.42,-68.24,-44.69,782,770,781,393,869,34.48275862068966,-0.886,-0.436,0.174
84562,1755606953239,61.39,-68.28,-44.69,784,775,781,358,869,33.333333333333336,-0.886,-0.434,0.173
84592,1755606953241,61.39,-68.27,-44.69,781,780,781,339,875,33.333333333333336,-0.885,-0.434,0.177
84621,1755606953242,61.4,-68.25,-44.67,785,777,777,384,873,34.48275862068966,-0.885,-0.434,0.179
84651,1755606953245,61.41,-68.24,-44.67,781,778,776,426,869,33.333333333333336,-0.886,-0.432,0.179
84680,1755606953247,61.41,-68.23,-44.67,782,777,780,375,860,34.48275862068966,-0.886,-0.434,0.177
84700,1755606953249,61.41,-68.26,-44.67,781,777,782,395,870,50.0,-0.885,-0.433,0.174
84730,1755606953251,61.37,-68.27,-44.67,780,773,782,369,866,33.333333333333336,-0.886,-0.432,0.175
84750,1755606953253,61.38,-68.25,-44.68,782,774,775,409,871,50.0,-0.887,-0.433,0.177
84780,1755606953255,61.43,-68.24,-44.7,784,775,776,371,861,33.333333333333336,-0.885,-0.434,0.178
84809,1755606953257,61.41,-68.22,-44.69,782,775,774,358,865,34.48275862068966,-0.886,-0.434,0.175
84839,1755606953259,61.42,-68.22,-44.68,777,778,779,392,869,33.333333333333336,-0.885,-0.434,0.176
84868,1755606953261,61.41,-68.2,-44.68,784,771,780,437,873,34.48275862068966,-0.885,-0.435,0.178
84889,1755606953263,61.39,-68.19,-44.66,783,772,774,364,864,47.61904761904762,-0.886,-0.435,0.178
84948,1755606953267,61.31,-68.06,-44.62,785,773,780,407,867,34.48275862068966,-0.886,-0.432,0.175
85007,1755606953271,61.17,-68.27,-44.65,779,773,776,356,862,34.48275862068966,-0.894,-0.432,0.173
85037,1755606953273,61.22,-68.25,-44.67,783,770,779,398,873,33.333333333333336,-0.892,-0.435,0.18
85066,1755606953276,61.23,-68.14,-44.67,778,772,782,394,870,34.48275862068966,-0.891,-0.433,0.18
85096,1755606953305,61.12,-68.06,-44.66,784,775,783,306,868,33.333333333333336,-0.889,-0.43,0.18
85126,1755606953334,61.14,-68.01,-44.66,780,779,780,317,870,33.333333333333336,-0.887,-0.431,0.183
85155,1755606953364,61.19,-68.0,-44.66,782,776,776,374,869,34.48275862068966,-0.887,-0.432,0.185
85185,1755606953394,61.2,-67.97,-44.66,778,772,781,413,871,33.333333333333336,-0.886,-0.43,0.185
85215,1755606953424,61.18,-67.93,-44.68,781,777,775,416,867,33.333333333333336,-0.888,-0.431,0.184
85245,1755606953454,61.14,-67.87,-44.66,782,768,781,342,868,33.333333333333336,-0.886,-0.433,0.18
85274,1755606953483,61.09,-67.9,-44.67,783,774,780,358,870,34.48275862068966,-0.885,-0.431,0.18
85304,1755606953513,61.1,-67.94,-44.71,783,774,782,409,870,33.333333333333336,-0.886,-0.431,0.181
85334,1755606953543,61.1,-67.86,-44.73,777,780,782,420,873,33.333333333333336,-0.886,-0.431,0.185
85363,1755606953572,61.09,-67.79,-44.74,776,777,778,385,870,34.48275862068966,-0.885,-0.434,0.183
85393,1755606953602,61.07,-67.8,-44.73,778,769,785,342,869,33.333333333333336,-0.884,-0.433,0.183
85423,1755606953631,61.0,-67.75,-44.7,778,773,780,362,872,33.333333333333336,-0.885,-0.431,0.186
85452,1755606953661,60.98,-67.7,-44.7,781,775,780,403,872,34.48275862068966,-0.886,-0.431,0.186
85482,1755606953691,60.95,-67.66,-44.69,778,774,780,388,873,33.333333333333336,-0.885,-0.434,0.186
85511,1755606953720,60.94,-67.65,-44.67,782,778,782,350,867,34.48275862068966,-0.883,-0.435,0.189
85541,1755606953750,60.96,-67.6,-44.66,779,779,775,353,865,33.333333333333336,-0.884,-0.431,0.192
85571,1755606953779,60.94,-67.54,-44.66,782,776,779,409,869,33.333333333333336,-0.884,-0.428,0.19
85600,1755606953809,60.93,-67.53,-44.65,785,772,779,425,872,34.48275862068966,-0.885,-0.431,0.188
85629,1755606953838,60.94,-67.53,-44.64,782,770,778,376,868,34.48275862068966,-0.885,-0.433,0.19
85659,1755606953868,60.89,-67.54,-44.62,784,776,782,351,870,33.333333333333336,-0.884,-0.431,0.191
85689,1755606953898,60.99,-67.57,-44.62,779,774,779,374,870,33.333333333333336,-0.886,-0.427,0.193
85719,1755606953927,60.99,-67.54,-44.61,782,777,778,412,868,33.333333333333336,-0.885,-0.427,0.193
85748,1755606953957,61.01,-67.48,-44.6,777,777,779,402,872,34.48275862068966,-0.884,-0.429,0.192
85778,1755606953987,61.07,-67.5,-44.6,784,773,777,343,866,33.333333333333336,-0.885,-0.427,0.19
85807,1755606954016,61.06,-67.54,-44.61,781,778,782,346,870,34.48275862068966,-0.886,-0.428,0.189
85837,1755606954046,61.07,-67.52,-44.59,785,773,780,410,874,33.333333333333336,-0.885,-0.431,0.19
85867,1755606954076,61.13,-67.54,-44.57,782,776,775,421,870,33.333333333333336,-0.885,-0.432,0.19
85897,1755606954106,61.18,-67.54,-44.56,784,775,782,365,869,33.333333333333336,-0.885,-0.429,0.19
85926,1755606954135,61.19,-67.47,-44.55,780,769,779,338,864,34.48275862068966,-0.887,-0.428,0.187
85956,1755606954165,61.17,-67.43,-44.54,778,775,780,380,871,33.333333333333336,-0.885,-0.43,0.185
85986,1755606954194,61.21,-67.41,-44.53,781,775,781,419,868,33.333333333333336,-0.885,-0.428,0.184
86015,1755606954224,61.21,-67.41,-44.52,777,777,783,387,872,34.48275862068966,-0.886,-0.423,0.188
86045,1755606954254,61.15,-67.3,-44.52,778,778,780,341,872,33.333333333333336,-0.887,-0.421,0.189
86074,1755606954283,61.17,-67.25,-44.56,780,773,777,352,868,34.48275862068966,-0.887,-0.424,0.187
86133,1755606954342,61.15,-67.13,-44.57,785,777,781,427,870,34.48275862068966,-0.886,-0.428,0.183
86163,1755606954371,61.06,-67.09,-44.6,784,775,775,371,869,33.333333333333336,-0.887,-0.424,0.184
86192,1755606954401,61.04,-67.07,-44.64,783,772,778,340,870,34.48275862068966,-0.887,-0.428,0.188
86222,1755606954431,61.04,-67.06,-44.63,778,777,785,371,870,33.333333333333336,-0.884,-0.432,0.191
86252,1755606954461,60.99,-67.06,-44.62,782,777,778,417,870,33.333333333333336,-0.885,-0.429,0.192
86340,1755606954549,61.03,-66.98,-44.64,785,772,781,346,875,34.48275862068966,-0.884,-0.432,0.189
86370,1755606954579,61.07,-67.03,-44.66,782,775,781,396,874,33.333333333333336,-0.883,-0.431,0.192
86400,1755606954609,61.08,-66.97,-44.65,783,772,778,404,869,33.333333333333336,-0.884,-0.429,0.194
86460,1755606954669,61.11,-66.92,-44.65,782,777,775,323,863,33.333333333333336,-0.885,-0.429,0.19
86489,1755606954698,61.12,-67.01,-44.65,784,773,778,358,868,34.48275862068966,-0.884,-0.429,0.187
86519,1755606954728,61.11,-67.0,-44.65,778,767,776,398,865,33.333333333333336,-0.885,-0.427,0.191
86539,1755606954748,61.09,-66.97,-44.64,781,775,782,352,862,50.0,-0.885,-0.427,0.194
86568,1755606954777,61.15,-66.96,-44.65,781,768,774,393,859,34.48275862068966,-0.884,-0.428,0.192
86628,1755606954837,61.18,-66.99,-44.65,781,774,782,352,879,33.333333333333336,-0.885,-0.429,0.185
86687,1755606954896,61.04,-67.06,-44.61,783,775,777,415,870,33.333333333333336,-0.887,-0.429,0.192
86717,1755606954925,60.93,-66.97,-44.59,783,773,775,410,871,33.333333333333336,-0.886,-0.426,0.19
86746,1755606954955,61.06,-66.95,-44.62,783,776,781,371,878,34.48275862068966,-0.885,-0.427,0.192
86805,1755606955014,61.06,-66.96,-44.62,783,779,780,387,868,34.48275862068966,-0.885,-0.43,0.189
86835,1755606955044,61.08,-66.97,-44.64,778,775,781,423,869,33.333333333333336,-0.885,-0.427,0.192
86864,1755606955073,61.08,-66.89,-44.65,781,778,782,378,869,34.48275862068966,-0.885,-0.427,0.194
86894,1755606955103,61.11,-66.81,-44.65,778,773,780,353,867,33.333333333333336,-0.884,-0.429,0.192
86924,1755606955133,61.15,-66.85,-44.66,782,775,779,350,867,33.333333333333336,-0.885,-0.43,0.19
86953,1755606955162,61.13,-66.88,-44.67,780,767,774,413,864,34.48275862068966,-0.885,-0.429,0.189
86983,1755606955192,61.15,-66.85,-44.67,783,778,779,418,864,33.333333333333336,-0.885,-0.428,0.191
87042,1755606955251,61.19,-66.81,-44.69,781,773,781,335,871,34.48275862068966,-0.885,-0.43,0.191
87072,1755606955280,61.17,-66.8,-44.67,782,776,774,350,866,33.333333333333336,-0.885,-0.43,0.191
87101,1755606955310,61.2,-66.78,-44.67,781,772,776,392,870,34.48275862068966,-0.886,-0.429,0.19
87131,1755606955340,61.22,-66.78,-44.67,782,779,781,372,868,33.333333333333336,-0.885,-0.429,0.189
87161,1755606955369,61.21,-66.78,-44.66,783,767,779,348,869,33.333333333333336,-0.885,-0.43,0.188
87190,1755606955399,61.26,-66.78,-44.67,779,774,783,358,870,34.48275862068966,-0.884,-0.428,0.191
87220,1755606955429,61.27,-66.74,-44.68,777,778,783,426,866,33.333333333333336,-0.886,-0.429,0.192
87250,1755606955459,61.26,-66.74,-44.68,781,769,783,404,862,33.333333333333336,-0.885,-0.428,0.188
87279,1755606955490,61.27,-66.74,-44.68,779,776,779,359,872,34.48275862068966,-0.886,-0.429,0.188
87301,1755606955509,61.25,-66.74,-44.67,784,773,779,412,867,45.45454545454545,-0.885,-0.428,0.189
87330,1755606955539,61.25,-66.75,-44.68,783,771,781,360,868,34.48275862068966,-0.886,-0.426,0.19
87360,1755606955569,61.27,-66.72,-44.69,781,774,779,328,875,33.333333333333336,-0.886,-0.427,0.191
87390,1755606955599,61.31,-66.7,-44.7,779,773,776,350,864,33.333333333333336,-0.885,-0.428,0.191
87419,1755606955628,61.33,-66.67,-44.71,783,773,779,413,866,34.48275862068966,-0.885,-0.429,0.189
87449,1755606955658,61.32,-66.7,-44.71,778,768,785,401,862,33.333333333333336,-0.885,-0.428,0.185
87479,1755606955688,61.31,-66.72,-44.72,783,770,781,311,871,33.333333333333336,-0.886,-0.428,0.186
87508,1755606955717,61.36,-66.73,-44.73,777,773,774,324,864,34.48275862068966,-0.885,-0.428,0.19
87538,1755606955747,61.36,-66.72,-44.74,778,769,782,390,869,33.333333333333336,-0.885,-0.428,0.19
87567,1755606955776,61.43,-66.7,-44.75,786,772,780,418,866,34.48275862068966,-0.885,-0.428,0.19
87627,1755606955835,61.43,-66.69,-44.75,782,774,781,344,866,33.333333333333336,-0.885,-0.43,0.187
87656,1755606955865,61.46,-66.71,-44.76,779,769,777,373,865,34.48275862068966,-0.885,-0.429,0.187
87686,1755606955895,61.44,-66.69,-44.76,780,768,780,421,863,33.333333333333336,-0.886,-0.429,0.186
87715,1755606955924,61.42,-66.67,-44.75,781,777,779,402,876,34.48275862068966,-0.885,-0.43,0.186
87745,1755606955954,61.47,-66.72,-44.77,782,770,779,345,862,33.333333333333336,-0.884,-0.43,0.185
87774,1755606955983,61.46,-66.76,-44.78,781,777,777,347,863,34.48275862068966,-0.885,-0.428,0.184
87804,1755606956013,61.42,-66.72,-44.79,782,773,782,418,868,33.333333333333336,-0.886,-0.429,0.184
87834,1755606956042,61.41,-66.73,-44.78,781,768,784,417,865,33.333333333333336,-0.884,-0.431,0.186
87863,1755606956072,61.42,-66.76,-44.77,780,772,782,366,865,34.48275862068966,-0.884,-0.431,0.188
87893,1755606956101,61.45,-66.75,-44.77,786,777,779,334,865,33.333333333333336,-0.885,-0.428,0.187
87922,1755606956131,61.44,-66.71,-44.78,778,779,782,388,865,34.48275862068966,-0.885,-0.429,0.184
87952,1755606956161,61.44,-66.76,-44.78,781,777,776,411,866,33.333333333333336,-0.884,-0.43,0.184
87981,1755606956190,61.44,-66.82,-44.79,781,776,779,384,867,34.48275862068966,-0.885,-0.429,0.186
88011,1755606956220,61.45,-66.81,-44.79,785,768,779,336,869,33.333333333333336,-0.886,-0.428,0.186
88040,1755606956249,61.42,-66.77,-44.8,782,773,779,351,866,34.48275862068966,-0.886,-0.428,0.186
88070,1755606956279,61.42,-66.79,-44.81,781,772,778,414,867,33.333333333333336,-0.885,-0.431,0.185
88100,1755606956309,61.45,-66.86,-44.82,782,773,779,400,861,33.333333333333336,-0.884,-0.43,0.184
88120,1755606956330,61.45,-66.86,-44.82,782,770,781,383,864,50.0,-0.886,-0.43,0.186
88150,1755606956359,61.43,-66.78,-44.82,778,772,781,389,870,33.333333333333336,-0.885,-0.43,0.186
88180,1755606956389,61.47,-66.78,-44.85,782,776,779,342,870,33.333333333333336,-0.884,-0.429,0.184
88210,1755606956418,61.51,-66.85,-44.87,784,772,778,327,864,33.333333333333336,-0.886,-0.431,0.183
88239,1755606956448,61.47,-66.85,-44.86,777,774,779,369,868,34.48275862068966,-0.885,-0.432,0.183
88269,1755606956478,61.47,-66.83,-44.85,781,774,781,414,864,33.333333333333336,-0.886,-0.431,0.183
88328,1755606956537,61.45,-66.85,-44.87,779,775,780,328,868,34.48275862068966,-0.886,-0.433,0.184
88358,1755606956568,61.42,-66.86,-44.86,785,773,783,307,861,33.333333333333336,-0.884,-0.432,0.185
88379,1755606956587,61.42,-66.83,-44.86,784,772,775,361,866,47.61904761904762,-0.885,-0.431,0.187
88408,1755606956617,61.46,-66.8,-44.87,781,773,778,341,871,34.48275862068966,-0.885,-0.43,0.187
88438,1755606956647,61.44,-66.81,-44.88,780,772,775,395,864,33.333333333333336,-0.884,-0.43,0.183
88467,1755606956676,61.43,-66.82,-44.87,783,778,781,396,859,34.48275862068966,-0.885,-0.432,0.182
88497,1755606956706,61.4,-66.88,-44.88,780,776,777,354,869,33.333333333333336,-0.884,-0.432,0.183
88526,1755606956736,61.35,-66.86,-44.86,780,772,779,295,865,34.48275862068966,-0.884,-0.431,0.184
88547,1755606956756,61.38,-66.87,-44.87,783,776,779,361,862,47.61904761904762,-0.885,-0.431,0.186
88577,1755606956786,61.41,-66.86,-44.87,778,778,782,350,863,33.333333333333336,-0.884,-0.429,0.186
88607,1755606956815,61.4,-66.86,-44.87,778,777,778,332,872,33.333333333333336,-0.885,-0.431,0.185
88636,1755606956845,61.36,-66.85,-44.85,784,774,781,393,864,34.48275862068966,-0.885,-0.431,0.185
88666,1755606956875,61.37,-66.86,-44.85,780,776,779,397,862,33.333333333333336,-0.886,-0.429,0.189
88695,1755606956904,61.41,-66.83,-44.86,782,775,780,339,861,34.48275862068966,-0.886,-0.429,0.189
88725,1755606956934,61.45,-66.79,-44.86,782,779,782,345,865,33.333333333333336,-0.886,-0.43,0.186
88754,1755606956963,61.42,-66.8,-44.87,780,775,779,413,864,34.48275862068966,-0.886,-0.429,0.184
88784,1755606956994,61.38,-66.79,-44.86,778,780,782,403,867,33.333333333333336,-0.886,-0.43,0.185
88804,1755606957013,61.38,-66.78,-44.86,783,777,782,373,866,50.0,-0.885,-0.43,0.185
88834,1755606957043,61.43,-66.8,-44.87,782,778,776,386,869,33.333333333333336,-0.885,-0.43,0.189
88864,1755606957073,61.43,-66.77,-44.86,780,769,775,365,866,33.333333333333336,-0.886,-0.43,0.188
88884,1755606957093,61.45,-66.73,-44.86,779,780,779,413,861,50.0,-0.886,-0.429,0.185
88913,1755606957122,61.48,-66.77,-44.87,781,774,781,358,854,34.48275862068966,-0.886,-0.431,0.183
88943,1755606957152,61.46,-66.78,-44.86,781,775,781,346,862,33.333333333333336,-0.885,-0.431,0.184
88973,1755606957181,61.46,-66.78,-44.87,778,779,779,378,868,33.333333333333336,-0.885,-0.428,0.186
89002,1755606957211,61.52,-66.75,-44.88,781,770,781,411,864,34.48275862068966,-0.885,-0.43,0.186
89032,1755606957240,61.52,-66.77,-44.87,777,775,779,372,864,33.333333333333336,-0.885,-0.431,0.182
89061,1755606957270,61.51,-66.82,-44.88,778,775,780,338,865,34.48275862068966,-0.885,-0.43,0.181
89091,1755606957300,61.52,-66.83,-44.88,782,777,780,353,863,33.333333333333336,-0.886,-0.429,0.181
89121,1755606957330,61.45,-66.82,-44.87,785,771,775,417,864,33.333333333333336,-0.886,-0.43,0.182
89150,1755606957359,61.44,-66.85,-44.87,780,775,780,412,867,34.48275862068966,-0.885,-0.431,0.184
89180,1755606957389,61.48,-66.84,-44.87,783,769,777,371,865,33.333333333333336,-0.884,-0.43,0.184
89239,1755606957448,61.4,-66.77,-44.87,783,771,779,390,867,34.48275862068966,-0.885,-0.429,0.182
89269,1755606957478,61.42,-66.81,-44.89,786,778,774,408,865,33.333333333333336,-0.884,-0.433,0.181
89298,1755606957507,61.43,-66.86,-44.89,781,777,777,389,862,34.48275862068966,-0.884,-0.431,0.184
89357,1755606957566,61.4,-66.76,-44.88,778,774,779,322,867,34.48275862068966,-0.886,-0.431,0.186
89387,1755606957596,61.4,-66.79,-44.89,782,777,779,400,866,33.333333333333336,-0.885,-0.432,0.184
89417,1755606957626,61.38,-66.79,-44.87,782,774,785,353,866,33.333333333333336,-0.884,-0.43,0.184
89447,1755606957656,61.43,-66.82,-44.88,781,772,775,334,857,33.333333333333336,-0.887,-0.43,0.185
89476,1755606957685,61.39,-66.8,-44.88,780,767,778,338,863,34.48275862068966,-0.885,-0.431,0.185
89506,1755606957715,61.37,-66.78,-44.86,783,775,777,391,867,33.333333333333336,-0.884,-0.43,0.185
89536,1755606957744,61.41,-66.82,-44.86,779,772,781,407,861,33.333333333333336,-0.886,-0.429,0.184
89565,1755606957774,61.34,-66.8,-44.85,783,776,782,374,874,34.48275862068966,-0.886,-0.429,0.183
89595,1755606957804,61.41,-66.86,-44.88,777,767,778,321,860,33.333333333333336,-0.887,-0.43,0.184
89625,1755606957833,61.39,-66.84,-44.87,779,774,777,344,876,33.333333333333336,-0.886,-0.431,0.186
89654,1755606957863,61.4,-66.83,-44.87,784,767,780,400,859,34.48275862068966,-0.887,-0.429,0.186
89684,1755606957892,61.43,-66.82,-44.89,779,772,783,395,865,33.333333333333336,-0.886,-0.428,0.184
89713,1755606957922,61.39,-66.83,-44.89,782,772,782,341,865,34.48275862068966,-0.887,-0.43,0.183
89743,1755606957952,61.41,-66.89,-44.9,781,768,781,344,867,33.333333333333336,-0.887,-0.432,0.185
89772,1755606957982,61.37,-66.84,-44.87,776,776,781,380,865,34.48275862068966,-0.885,-0.429,0.188
89802,1755606958011,61.43,-66.79,-44.89,781,781,779,406,862,33.333333333333336,-0.887,-0.429,0.187
89832,1755606958041,61.46,-66.74,-44.9,779,778,780,379,863,33.333333333333336,-0.886,-0.43,0.181
89861,1755606958070,61.42,-66.78,-44.89,783,779,781,342,865,34.48275862068966,-0.886,-0.431,0.178
89891,1755606958100,61.42,-66.84,-44.9,779,775,781,364,867,33.333333333333336,-0.886,-0.43,0.181
89920,1755606958129,61.44,-66.85,-44.92,776,768,779,407,862,34.48275862068966,-0.886,-0.429,0.185
89950,1755606958159,61.43,-66.81,-44.93,781,773,783,410,861,33.333333333333336,-0.885,-0.429,0.185
89980,1755606958189,61.46,-66.83,-44.94,781,768,782,365,873,33.333333333333336,-0.886,-0.432,0.182
90010,1755606958219,61.44,-66.88,-44.94,782,773,783,342,868,33.333333333333336,-0.886,-0.431,0.181
90030,1755606958239,61.4,-66.88,-44.93,781,776,780,398,863,50.0,-0.886,-0.431,0.181
90059,1755606958268,61.4,-66.87,-44.93,780,775,780,360,865,34.48275862068966,-0.885,-0.43,0.184
90089,1755606958298,61.44,-66.89,-44.95,779,772,778,404,869,33.333333333333336,-0.886,-0.43,0.184
90118,1755606958327,61.41,-66.9,-44.95,781,779,779,428,865,34.48275862068966,-0.886,-0.432,0.182
90148,1755606958357,61.39,-66.91,-44.93,779,775,779,380,871,33.333333333333336,-0.885,-0.432,0.181
90177,1755606958386,61.41,-66.92,-44.93,781,773,781,331,863,34.48275862068966,-0.885,-0.432,0.183
90207,1755606958416,61.41,-66.93,-44.94,778,773,774,383,866,33.333333333333336,-0.886,-0.431,0.184
90266,1755606958475,61.43,-66.96,-44.94,784,774,779,398,872,34.48275862068966,-0.886,-0.431,0.183
90295,1755606958504,61.41,-66.93,-44.94,781,768,782,325,871,34.48275862068966,-0.885,-0.43,0.184
90325,1755606958534,61.45,-66.94,-44.97,782,773,778,354,864,33.333333333333336,-0.886,-0.43,0.183
90385,1755606958593,61.41,-66.93,-45.0,779,780,780,405,864,33.333333333333336,-0.886,-0.431,0.183
90443,1755606958652,61.42,-66.93,-45.03,781,774,780,333,861,34.48275862068966,-0.886,-0.432,0.182
90473,1755606958682,61.4,-66.95,-45.04,781,772,777,381,875,33.333333333333336,-0.885,-0.432,0.183
90503,1755606958712,61.45,-66.95,-45.05,783,774,780,407,865,33.333333333333336,-0.886,-0.433,0.185
90532,1755606958741,61.43,-66.92,-45.05,780,777,781,388,867,34.48275862068966,-0.885,-0.432,0.185
90562,1755606958771,61.37,-66.92,-45.05,777,776,779,344,859,33.333333333333336,-0.885,-0.432,0.183
90591,1755606958800,61.34,-66.96,-45.06,785,768,775,357,863,34.48275862068966,-0.884,-0.432,0.18
90621,1755606958830,61.37,-67.02,-45.07,782,771,779,409,867,33.333333333333336,-0.884,-0.434,0.182
90680,1755606958889,61.37,-67.02,-45.08,780,768,784,353,872,33.333333333333336,-0.885,-0.432,0.185
90709,1755606958918,61.39,-67.05,-45.09,783,773,779,336,871,34.48275862068966,-0.885,-0.432,0.184
90739,1755606958948,61.37,-67.04,-45.08,779,773,782,393,865,33.333333333333336,-0.885,-0.432,0.183
90769,1755606958978,61.34,-67.02,-45.07,779,780,779,422,868,33.333333333333336,-0.885,-0.434,0.184
90798,1755606959007,61.39,-67.04,-45.07,781,773,779,388,867,34.48275862068966,-0.884,-0.433,0.185
90828,1755606959037,61.42,-67.03,-45.07,784,775,783,335,862,33.333333333333336,-0.885,-0.432,0.185
90857,1755606959066,61.4,-66.98,-45.06,781,772,774,319,862,34.48275862068966,-0.885,-0.432,0.183
90887,1755606959096,61.39,-66.97,-45.06,782,769,783,386,866,33.333333333333336,-0.885,-0.432,0.182
90976,1755606959185,61.36,-67.02,-45.06,784,780,782,338,866,33.333333333333336,-0.886,-0.431,0.182
91005,1755606959214,61.36,-67.01,-45.07,780,777,778,410,859,34.48275862068966,-0.884,-0.431,0.183
91035,1755606959244,61.38,-67.0,-45.07,778,768,781,413,860,33.333333333333336,-0.884,-0.433,0.184
91064,1755606959273,61.36,-67.02,-45.06,780,770,779,372,865,34.48275862068966,-0.884,-0.431,0.181
91094,1755606959303,61.36,-67.07,-45.08,784,774,778,355,866,33.333333333333336,-0.884,-0.432,0.181
91124,1755606959333,61.39,-67.11,-45.08,777,774,776,396,871,33.333333333333336,-0.884,-0.434,0.184
91144,1755606959353,61.38,-67.1,-45.08,783,773,780,351,865,50.0,-0.884,-0.434,0.185
91164,1755606959373,61.34,-67.07,-45.06,779,770,779,409,863,50.0,-0.885,-0.433,0.184
91194,1755606959402,61.33,-67.08,-45.06,783,773,777,346,864,33.333333333333336,-0.885,-0.433,0.182
91223,1755606959432,61.32,-67.14,-45.05,776,779,782,395,865,34.48275862068966,-0.884,-0.434,0.18
91253,1755606959462,61.2,-67.16,-45.02,782,781,777,419,863,33.333333333333336,-0.884,-0.433,0.181
91282,1755606959491,61.1,-67.12,-45.0,783,769,779,383,860,34.48275862068966,-0.884,-0.43,0.184
91312,1755606959521,61.14,-67.15,-45.02,780,770,779,347,867,33.333333333333336,-0.884,-0.432,0.189
91342,1755606959550,61.21,-67.05,-45.02,782,766,780,369,863,33.333333333333336,-0.884,-0.434,0.191
91371,1755606959580,61.23,-66.95,-45.02,780,780,781,377,869,34.48275862068966,-0.883,-0.432,0.19
91400,1755606959609,61.3,-66.92,-45.02,785,772,778,388,860,34.48275862068966,-0.883,-0.432,0.189
91459,1755606959668,61.34,-66.98,-45.02,783,769,776,347,865,34.48275862068966,-0.885,-0.432,0.184
91489,1755606959698,61.3,-67.01,-45.0,777,767,776,411,867,33.333333333333336,-0.885,-0.432,0.181
91518,1755606959727,61.26,-67.05,-44.99,780,775,780,419,861,34.48275862068966,-0.885,-0.432,0.184
91548,1755606959757,61.22,-66.98,-44.96,783,770,778,373,865,33.333333333333336,-0.884,-0.43,0.188
91578,1755606959787,61.24,-66.96,-44.97,782,774,779,335,864,33.333333333333336,-0.886,-0.427,0.187
91607,1755606959817,61.24,-66.94,-45.0,780,774,778,362,866,34.48275862068966,-0.886,-0.427,0.186
91637,1755606959846,61.28,-66.91,-45.02,782,772,774,400,864,33.333333333333336,-0.886,-0.431,0.186
91667,1755606959876,61.27,-66.89,-45.02,783,773,778,387,865,33.333333333333336,-0.885,-0.43,0.186
91696,1755606959905,61.28,-66.86,-45.04,782,770,780,335,859,34.48275862068966,-0.885,-0.428,0.186
91726,1755606959935,61.35,-66.87,-45.09,780,779,775,345,861,33.333333333333336,-0.885,-0.428,0.184
91755,1755606959964,61.34,-66.86,-45.1,779,776,781,416,865,34.48275862068966,-0.884,-0.432,0.185
91844,1755606960053,61.35,-66.87,-45.13,785,774,783,343,867,34.48275862068966,-0.885,-0.431,0.186
91874,1755606960082,61.3,-66.87,-45.13,779,770,779,391,866,33.333333333333336,-0.884,-0.438,0.183
91903,1755606960112,61.34,-66.88,-45.14,784,775,778,415,868,34.48275862068966,-0.884,-0.437,0.185
91933,1755606960142,61.33,-66.87,-45.14,777,774,781,395,862,33.333333333333336,-0.883,-0.434,0.184
