timestamp_ms,recv_timestamp_ms,pitch,roll,yaw,flex1,flex2,flex3,flex4,flex5,sampling_hz,accel_x,accel_y,accel_z
65593,1755606938057,61.73,-59.9,-42.8,782,778,780,346,863,33.333333333333336,-0.887,-0.403,0.232
65623,1755606938060,61.69,-59.93,-42.79,777,773,779,393,865,33.333333333333336,-0.889,-0.401,0.23
65652,1755606938062,61.48,-60.06,-42.64,782,778,780,418,863,34.48275862068966,-0.891,-0.402,0.24
65682,1755606938064,60.46,-59.84,-42.52,780,776,774,370,867,33.333333333333336,-0.884,-0.403,0.243
65711,1755606938066,59.76,-59.8,-42.36,777,782,782,331,859,34.48275862068966,-0.885,-0.404,0.244
65741,1755606938068,59.15,-60.01,-42.17,779,776,775,355,868,33.333333333333336,-0.881,-0.403,0.249
65771,1755606938070,59.51,-59.98,-42.21,780,778,779,408,858,33.333333333333336,-0.876,-0.402,0.254
65801,1755606938072,60.8,-59.98,-42.5,782,773,781,399,860,33.333333333333336,-0.873,-0.405,0.248
65830,1755606938074,61.74,-59.98,-42.7,779,773,777,343,863,34.48275862068966,-0.884,-0.404,0.252
65860,1755606938076,61.4,-60.02,-42.66,779,766,774,333,864,33.333333333333336,-0.885,-0.399,0.248
65949,1755606938082,61.56,-60.04,-42.71,777,774,775,394,862,34.48275862068966,-0.889,-0.397,0.249
65979,1755606938084,61.47,-59.98,-42.72,780,778,780,329,870,33.333333333333336,-0.889,-0.398,0.245
66009,1755606938086,61.47,-59.91,-42.72,781,774,781,345,860,33.333333333333336,-0.886,-0.402,0.241
66038,1755606938088,61.51,-59.91,-42.73,781,770,780,421,863,34.48275862068966,-0.886,-0.404,0.237
66068,1755606938090,61.46,-59.86,-42.72,782,777,776,409,856,33.333333333333336,-0.885,-0.405,0.236
66097,1755606938092,61.53,-59.8,-42.72,779,774,784,365,860,34.48275862068966,-0.886,-0.405,0.237
66127,1755606938094,61.52,-59.77,-42.72,782,775,775,300,863,33.333333333333336,-0.885,-0.404,0.234
66157,1755606938096,61.51,-59.78,-42.73,782,777,780,380,864,33.333333333333336,-0.886,-0.406,0.231
66216,1755606938100,61.49,-59.71,-42.71,783,773,778,350,855,33.333333333333336,-0.885,-0.403,0.23
66246,1755606938102,61.48,-59.71,-42.72,781,772,782,305,863,33.333333333333336,-0.886,-0.403,0.231
66275,1755606938104,61.51,-59.73,-42.73,777,773,779,328,867,34.48275862068966,-0.887,-0.405,0.229
66305,1755606938106,61.55,-59.76,-42.73,781,770,774,406,865,33.333333333333336,-0.887,-0.406,0.229
66335,1755606938108,61.53,-59.77,-42.73,776,773,776,414,864,33.333333333333336,-0.886,-0.403,0.231
66364,1755606938110,61.49,-59.74,-42.72,783,773,776,319,867,34.48275862068966,-0.887,-0.404,0.228
66394,1755606938112,61.52,-59.76,-42.72,783,773,777,314,862,33.333333333333336,-0.886,-0.405,0.227
66423,1755606938114,61.5,-59.81,-42.73,780,778,781,364,865,34.48275862068966,-0.886,-0.405,0.229
66453,1755606938116,61.53,-59.84,-42.74,782,775,780,402,857,33.333333333333336,-0.888,-0.405,0.23
66473,1755606938118,61.54,-59.81,-42.74,779,774,784,361,865,50.0,-0.889,-0.404,0.23
66503,1755606938120,61.51,-59.84,-42.72,778,777,782,398,861,33.333333333333336,-0.889,-0.405,0.229
66533,1755606938122,61.54,-59.91,-42.72,784,775,782,373,867,33.333333333333336,-0.888,-0.406,0.231
66562,1755606938124,61.64,-59.95,-42.73,783,770,779,343,858,34.48275862068966,-0.888,-0.405,0.234
66591,1755606938126,61.66,-59.89,-42.74,776,772,781,353,866,34.48275862068966,-0.888,-0.4,0.233
66621,1755606938128,61.68,-59.82,-42.74,781,777,779,421,862,33.333333333333336,-0.889,-0.403,0.234
66651,1755606938130,61.72,-59.79,-42.72,779,766,780,423,858,33.333333333333336,-0.888,-0.407,0.233
66680,1755606938132,61.75,-59.78,-42.69,780,772,780,334,865,34.48275862068966,-0.887,-0.407,0.231
66710,1755606938134,61.82,-59.78,-42.7,778,769,779,336,862,33.333333333333336,-0.888,-0.403,0.232
66739,1755606938136,61.85,-59.65,-42.71,780,774,781,393,865,34.48275862068966,-0.89,-0.404,0.233
66769,1755606938139,61.95,-59.59,-42.69,776,776,778,411,872,33.333333333333336,-0.887,-0.408,0.228
66798,1755606938141,62.07,-59.66,-42.68,779,773,779,369,864,34.48275862068966,-0.884,-0.407,0.221
66828,1755606938143,62.06,-59.88,-42.68,780,773,776,302,865,33.333333333333336,-0.888,-0.403,0.219
66858,1755606938145,62.13,-59.94,-42.72,781,777,781,353,861,33.333333333333336,-0.89,-0.397,0.225
66887,1755606938147,62.32,-59.87,-42.8,786,779,781,397,861,34.48275862068966,-0.889,-0.4,0.224
66946,1755606938151,62.51,-60.11,-42.89,780,766,781,347,865,34.48275862068966,-0.887,-0.405,0.218
66976,1755606938153,62.66,-60.16,-42.93,779,777,780,346,864,33.333333333333336,-0.891,-0.408,0.224
67006,1755606938155,62.82,-60.17,-42.94,778,767,782,390,867,33.333333333333336,-0.891,-0.407,0.22
67035,1755606938157,62.87,-60.28,-42.97,779,771,781,374,857,34.48275862068966,-0.89,-0.405,0.211
67065,1755606938159,62.86,-60.48,-43.0,786,771,784,350,864,33.333333333333336,-0.891,-0.408,0.203
67094,1755606938161,62.97,-60.76,-43.03,780,767,779,294,859,34.48275862068966,-0.891,-0.412,0.194
67410,1755606938183,63.76,-62.02,-43.7,782,767,782,348,865,34.48275862068966,-0.893,-0.41,0.176
67440,1755606938185,63.75,-62.25,-43.83,781,768,780,401,862,33.333333333333336,-0.897,-0.412,0.167
67470,1755606938187,63.69,-62.47,-43.93,780,765,780,407,865,33.333333333333336,-0.893,-0.419,0.16
67499,1755606938189,63.75,-62.8,-44.06,782,766,780,401,863,34.48275862068966,-0.893,-0.424,0.163
67529,1755606938190,63.6,-62.98,-44.13,782,767,781,340,858,33.333333333333336,-0.894,-0.424,0.176
67618,1755606938196,63.55,-62.84,-44.23,778,767,777,402,863,33.333333333333336,-0.888,-0.432,0.181
67707,1755606938203,63.41,-62.96,-44.14,778,778,774,375,863,33.333333333333336,-0.888,-0.437,0.168
67736,1755606938205,63.44,-62.99,-44.06,779,773,780,417,859,34.48275862068966,-0.886,-0.44,0.168
67766,1755606938207,63.29,-63.14,-44.0,781,776,779,388,862,33.333333333333336,-0.888,-0.436,0.165
67795,1755606938209,63.01,-63.19,-43.86,780,778,779,339,866,34.48275862068966,-0.893,-0.43,0.165
67825,1755606938211,62.89,-63.36,-43.85,782,777,779,361,864,33.333333333333336,-0.885,-0.424,0.175
67884,1755606938215,63.28,-62.95,-43.9,780,768,779,414,860,33.333333333333336,-0.89,-0.416,0.196
67943,1755606938220,63.93,-63.01,-43.93,783,779,779,328,862,34.48275862068966,-0.887,-0.426,0.186
67973,1755606938222,64.22,-63.05,-43.76,781,775,780,378,863,33.333333333333336,-0.891,-0.435,0.175
68002,1755606938224,64.35,-62.91,-43.56,779,776,780,396,863,34.48275862068966,-0.888,-0.419,0.165
68032,1755606938226,64.65,-63.45,-43.86,780,769,774,370,857,33.333333333333336,-0.885,-0.414,0.153
68062,1755606938228,65.01,-64.02,-44.05,783,767,784,339,862,33.333333333333336,-0.896,-0.419,0.146
68092,1755606938230,65.08,-64.23,-44.11,778,769,781,344,861,33.333333333333336,-0.901,-0.425,0.141
68121,1755606938232,65.07,-64.27,-44.2,777,773,781,391,861,34.48275862068966,-0.893,-0.425,0.143
68151,1755606938234,65.13,-64.67,-44.39,780,778,781,402,866,33.333333333333336,-0.887,-0.431,0.141
68180,1755606938236,65.43,-65.34,-44.52,779,776,782,349,861,34.48275862068966,-0.891,-0.44,0.137
68210,1755606938238,65.61,-65.55,-44.48,778,770,782,356,860,33.333333333333336,-0.891,-0.447,0.14
68240,1755606938240,65.56,-65.35,-44.43,779,775,777,383,865,33.333333333333336,-0.887,-0.44,0.139
68269,1755606938242,65.26,-65.61,-44.65,784,775,775,398,864,34.48275862068966,-0.878,-0.426,0.132
68299,1755606938244,65.05,-66.19,-44.89,785,773,774,398,864,33.333333333333336,-0.889,-0.43,0.123
68319,1755606938247,65.0,-66.67,-45.02,783,776,781,394,860,50.0,-0.898,-0.438,0.112
68349,1755606938248,65.29,-67.33,-45.08,782,766,779,384,872,33.333333333333336,-0.9,-0.44,0.113
68378,1755606938250,65.54,-67.83,-45.11,782,778,776,354,865,34.48275862068966,-0.897,-0.439,0.118
68408,1755606938253,65.57,-68.29,-45.07,781,778,780,346,870,33.333333333333336,-0.896,-0.445,0.12
68428,1755606938254,65.46,-68.41,-45.01,777,772,775,354,867,50.0,-0.893,-0.448,0.118
68448,1755606938257,65.38,-68.53,-44.93,784,781,782,391,876,50.0,-0.894,-0.449,0.116
68478,1755606938259,65.22,-68.63,-44.82,779,773,780,364,873,33.333333333333336,-0.891,-0.449,0.109
68507,1755606938261,65.02,-68.61,-44.68,784,768,778,374,870,34.48275862068966,-0.89,-0.449,0.105
68537,1755606938263,64.83,-68.66,-44.61,781,778,779,397,875,33.333333333333336,-0.89,-0.445,0.099
68566,1755606938265,64.58,-69.19,-44.65,780,775,782,384,872,34.48275862068966,-0.888,-0.44,0.095
68587,1755606938268,64.44,-69.66,-44.74,781,775,776,385,875,47.61904761904762,-0.885,-0.442,0.094
68616,1755606938269,64.15,-69.79,-44.75,786,775,778,365,874,34.48275862068966,-0.89,-0.444,0.092
68646,1755606938271,63.78,-69.96,-44.72,778,778,780,321,865,33.333333333333336,-0.896,-0.444,0.094
68675,1755606938274,63.44,-70.15,-44.75,780,776,780,357,871,34.48275862068966,-0.892,-0.444,0.099
68705,1755606938275,63.01,-70.16,-44.71,784,773,780,383,872,33.333333333333336,-0.894,-0.443,0.109
68735,1755606938279,62.56,-69.94,-44.65,779,773,778,405,874,33.333333333333336,-0.893,-0.447,0.12
68764,1755606938281,62.38,-69.78,-44.58,776,772,777,376,873,34.48275862068966,-0.889,-0.453,0.128
68794,1755606938283,62.4,-69.78,-44.49,777,774,778,353,871,33.333333333333336,-0.89,-0.454,0.138
68853,1755606938287,62.36,-69.58,-44.22,784,767,779,413,869,34.48275862068966,-0.89,-0.446,0.141
68883,1755606938289,62.26,-69.52,-44.13,784,774,781,399,876,33.333333333333336,-0.89,-0.436,0.139
68912,1755606938291,62.18,-69.51,-44.1,779,773,777,362,877,34.48275862068966,-0.89,-0.431,0.134
68942,1755606938293,61.91,-69.62,-44.1,781,768,777,366,872,33.333333333333336,-0.889,-0.43,0.127
68971,1755606938295,61.72,-69.94,-44.14,780,770,776,420,869,34.48275862068966,-0.892,-0.434,0.132
69001,1755606938296,61.58,-70.14,-44.07,780,776,781,408,876,33.333333333333336,-0.892,-0.443,0.144
69031,1755606938299,61.48,-70.09,-43.91,777,770,785,375,868,33.333333333333336,-0.884,-0.443,0.147
69090,1755606938303,61.51,-70.35,-43.89,777,774,779,375,873,33.333333333333336,-0.889,-0.438,0.154
69120,1755606938305,61.58,-70.21,-43.79,780,773,780,423,873,33.333333333333336,-0.89,-0.431,0.162
69179,1755606938310,61.43,-69.87,-43.71,776,766,776,367,865,34.48275862068966,-0.889,-0.425,0.169
69239,1755606938313,61.61,-69.58,-43.64,778,779,780,416,871,33.333333333333336,-0.896,-0.428,0.164
69268,1755606938315,61.42,-69.49,-43.51,779,770,777,411,867,34.48275862068966,-0.896,-0.421,0.156
69298,1755606938317,61.33,-69.54,-43.52,781,772,779,379,865,33.333333333333336,-0.892,-0.418,0.158
69327,1755606938319,61.25,-69.43,-43.51,779,778,783,344,870,34.48275862068966,-0.898,-0.417,0.162
69357,1755606938321,61.04,-69.33,-43.44,780,773,779,383,870,33.333333333333336,-0.901,-0.42,0.16
69377,1755606938323,60.9,-69.31,-43.4,777,774,779,363,869,50.0,-0.896,-0.421,0.16
69407,1755606938326,60.99,-69.41,-43.45,780,770,778,392,867,33.333333333333336,-0.89,-0.423,0.167
69466,1755606938330,60.99,-69.55,-43.44,780,778,781,392,870,33.333333333333336,-0.89,-0.421,0.176
69496,1755606938332,61.07,-69.66,-43.43,780,776,774,301,869,33.333333333333336,-0.893,-0.422,0.18
69525,1755606938333,61.25,-69.7,-43.41,778,769,779,332,871,34.48275862068966,-0.888,-0.418,0.179
69555,1755606938335,61.39,-69.82,-43.46,784,771,780,385,873,33.333333333333336,-0.892,-0.42,0.177
69585,1755606938337,61.47,-69.84,-43.47,782,773,784,407,871,33.333333333333336,-0.895,-0.419,0.174
69615,1755606938339,61.52,-69.87,-43.53,781,774,781,356,866,33.333333333333336,-0.888,-0.415,0.171
69644,1755606938341,61.56,-69.89,-43.64,782,770,780,343,871,34.48275862068966,-0.89,-0.415,0.17
69674,1755606938344,61.59,-69.82,-43.73,777,775,779,373,869,33.333333333333336,-0.895,-0.419,0.167
69734,1755606938347,61.67,-69.85,-43.88,779,774,781,388,869,33.333333333333336,-0.89,-0.424,0.161
69754,1755606938350,61.75,-69.98,-43.94,780,773,775,370,866,50.0,-0.89,-0.427,0.158
69783,1755606938352,61.72,-70.11,-43.95,784,777,775,386,873,34.48275862068966,-0.892,-0.428,0.162
69813,1755606938354,61.71,-70.2,-43.97,781,773,782,354,867,33.333333333333336,-0.89,-0.427,0.161
69843,1755606938356,61.71,-70.31,-43.97,783,781,779,336,866,33.333333333333336,-0.895,-0.429,0.157
69872,1755606938358,61.59,-70.41,-43.93,782,772,784,393,874,34.48275862068966,-0.89,-0.425,0.155
69902,1755606938360,61.48,-70.69,-43.92,782,779,776,413,869,33.333333333333336,-0.883,-0.427,0.158
69931,1755606938362,61.32,-70.72,-43.92,776,774,781,374,868,34.48275862068966,-0.888,-0.429,0.157
69961,1755606938364,61.12,-70.86,-43.9,779,777,776,350,869,33.333333333333336,-0.886,-0.431,0.157
69990,1755606938366,61.05,-70.98,-43.93,782,779,782,368,870,34.48275862068966,-0.882,-0.433,0.162
70020,1755606938369,61.13,-71.05,-43.97,777,769,782,402,870,33.333333333333336,-0.884,-0.433,0.171
70049,1755606938370,61.13,-70.93,-43.98,780,773,775,376,871,34.48275862068966,-0.881,-0.433,0.171
70079,1755606938373,61.36,-71.08,-44.07,780,777,778,340,873,33.333333333333336,-0.883,-0.436,0.169
70109,1755606938375,61.61,-71.29,-44.15,780,777,777,355,867,33.333333333333336,-0.882,-0.435,0.166
70138,1755606938377,61.69,-71.3,-44.17,779,779,779,390,873,34.48275862068966,-0.884,-0.437,0.166
70168,1755606938378,61.71,-71.31,-44.14,780,779,778,408,877,33.333333333333336,-0.886,-0.44,0.162
70198,1755606938406,61.82,-71.39,-44.17,779,768,780,374,871,33.333333333333336,-0.885,-0.435,0.158
70227,1755606938436,61.87,-71.44,-44.21,779,775,779,308,871,34.48275862068966,-0.886,-0.432,0.158
70257,1755606938466,61.91,-71.42,-44.23,776,775,781,365,866,33.333333333333336,-0.887,-0.44,0.153
70287,1755606938495,61.98,-71.48,-44.21,781,774,781,403,874,33.333333333333336,-0.884,-0.44,0.148
70316,1755606938525,61.9,-71.56,-44.22,777,767,774,403,868,34.48275862068966,-0.887,-0.436,0.146
70346,1755606938554,61.74,-71.49,-44.18,779,772,780,359,873,33.333333333333336,-0.888,-0.44,0.148
70375,1755606938584,61.71,-71.48,-44.18,776,767,777,368,870,34.48275862068966,-0.887,-0.44,0.149
70405,1755606938613,61.65,-71.46,-44.15,778,770,781,383,874,33.333333333333336,-0.886,-0.44,0.155
70434,1755606938643,61.62,-71.35,-44.12,783,780,781,400,867,34.48275862068966,-0.887,-0.439,0.158
70464,1755606938673,61.57,-71.12,-44.1,776,772,782,376,872,33.333333333333336,-0.888,-0.435,0.158
70494,1755606938702,61.58,-71.02,-44.12,779,772,781,337,873,33.333333333333336,-0.887,-0.435,0.154
70523,1755606938732,61.56,-70.98,-44.15,778,770,780,359,870,34.48275862068966,-0.888,-0.438,0.149
70553,1755606938762,61.42,-70.99,-44.17,776,774,779,414,870,33.333333333333336,-0.886,-0.44,0.144
70573,1755606938782,61.35,-71.03,-44.2,781,775,780,365,869,50.0,-0.886,-0.441,0.144
70603,1755606938811,61.26,-71.12,-44.2,782,774,779,410,869,33.333333333333336,-0.888,-0.44,0.145
70632,1755606938841,61.32,-71.19,-44.22,779,768,779,398,869,34.48275862068966,-0.888,-0.439,0.148
70662,1755606938871,61.28,-71.21,-44.23,782,774,781,350,866,33.333333333333336,-0.888,-0.441,0.149
70692,1755606938901,61.24,-71.27,-44.22,780,779,779,354,871,33.333333333333336,-0.887,-0.44,0.15
70722,1755606938930,61.27,-71.26,-44.19,781,773,780,390,868,33.333333333333336,-0.889,-0.439,0.156
70752,1755606938960,61.22,-71.2,-44.16,776,774,780,397,873,33.333333333333336,-0.889,-0.438,0.159
70781,1755606938990,61.17,-71.16,-44.14,782,778,780,370,876,34.48275862068966,-0.887,-0.438,0.157
70811,1755606939019,61.11,-71.16,-44.13,776,770,782,349,870,33.333333333333336,-0.889,-0.438,0.157
70840,1755606939049,61.06,-71.14,-44.11,781,773,781,334,870,34.48275862068966,-0.888,-0.439,0.16
70870,1755606939078,60.94,-71.02,-44.06,779,776,784,397,874,33.333333333333336,-0.888,-0.437,0.161
70929,1755606939137,60.79,-70.92,-44.06,778,770,778,338,868,33.333333333333336,-0.888,-0.437,0.162
70958,1755606939167,60.8,-70.91,-44.04,784,777,780,343,871,34.48275862068966,-0.886,-0.441,0.165
70988,1755606939196,60.79,-70.9,-44.01,779,773,783,396,862,33.333333333333336,-0.884,-0.442,0.167
71017,1755606939226,60.73,-70.83,-43.94,777,779,776,421,862,34.48275862068966,-0.886,-0.439,0.169
71047,1755606939255,60.71,-70.77,-43.91,778,768,781,381,865,33.333333333333336,-0.885,-0.435,0.168
71076,1755606939285,60.78,-70.74,-43.9,781,772,778,347,874,34.48275862068966,-0.887,-0.434,0.172
71106,1755606939314,60.78,-70.65,-43.87,781,778,780,389,861,33.333333333333336,-0.887,-0.433,0.171
71135,1755606939344,60.71,-70.57,-43.84,782,770,780,423,869,34.48275862068966,-0.887,-0.433,0.169
71165,1755606939373,60.74,-70.55,-43.83,779,772,782,395,870,33.333333333333336,-0.89,-0.433,0.171
71194,1755606939403,60.72,-70.47,-43.8,782,778,778,355,866,34.48275862068966,-0.887,-0.432,0.174
71224,1755606939432,60.73,-70.39,-43.79,780,773,774,375,866,33.333333333333336,-0.887,-0.433,0.176
71253,1755606939462,60.75,-70.34,-43.77,781,771,781,409,867,34.48275862068966,-0.888,-0.433,0.175
71283,1755606939491,60.75,-70.27,-43.74,780,781,777,390,869,33.333333333333336,-0.886,-0.43,0.174
71312,1755606939521,60.75,-70.28,-43.74,779,769,780,342,865,34.48275862068966,-0.888,-0.431,0.174
71342,1755606939551,60.77,-70.19,-43.73,784,774,779,347,869,33.333333333333336,-0.887,-0.433,0.172
71372,1755606939580,60.78,-70.18,-43.69,780,774,780,402,867,33.333333333333336,-0.889,-0.432,0.172
71401,1755606939610,60.78,-70.2,-43.68,777,774,782,410,867,34.48275862068966,-0.887,-0.429,0.173
71431,1755606939639,60.79,-70.15,-43.67,781,775,778,383,876,33.333333333333336,-0.888,-0.427,0.176
71460,1755606939669,60.79,-70.07,-43.65,778,773,779,344,869,34.48275862068966,-0.888,-0.428,0.176
71490,1755606939698,60.74,-70.0,-43.6,778,773,776,380,870,33.333333333333336,-0.889,-0.43,0.176
71519,1755606939728,60.83,-70.05,-43.62,779,779,780,400,873,34.48275862068966,-0.892,-0.429,0.176
71549,1755606939758,60.83,-69.99,-43.58,781,777,780,383,870,33.333333333333336,-0.89,-0.426,0.178
71579,1755606939787,60.89,-69.92,-43.59,780,776,780,323,868,33.333333333333336,-0.889,-0.426,0.178
71608,1755606939817,60.9,-69.88,-43.56,780,777,782,345,872,34.48275862068966,-0.89,-0.428,0.176
71638,1755606939846,61.02,-69.88,-43.52,777,778,780,398,866,33.333333333333336,-0.892,-0.43,0.18
71667,1755606939876,61.01,-69.75,-43.46,781,769,779,394,866,34.48275862068966,-0.89,-0.427,0.182
71697,1755606939906,61.01,-69.57,-43.41,780,774,783,344,864,33.333333333333336,-0.886,-0.426,0.18
71727,1755606939935,61.09,-69.51,-43.4,779,774,776,346,868,33.333333333333336,-0.887,-0.426,0.175
71756,1755606939965,61.09,-69.53,-43.39,782,772,782,373,868,34.48275862068966,-0.887,-0.423,0.173
71786,1755606939994,61.09,-69.56,-43.41,782,776,779,411,870,33.333333333333336,-0.888,-0.422,0.169
71874,1755606940083,60.98,-69.55,-43.35,780,777,780,364,868,34.48275862068966,-0.89,-0.424,0.178
71904,1755606940113,61.02,-69.49,-43.32,781,774,781,412,868,33.333333333333336,-0.891,-0.422,0.182
71934,1755606940142,61.04,-69.39,-43.31,782,775,784,360,868,33.333333333333336,-0.889,-0.421,0.179
71963,1755606940172,61.05,-69.37,-43.3,777,767,777,343,870,34.48275862068966,-0.892,-0.423,0.176
72023,1755606940231,61.53,-69.3,-43.23,782,777,781,375,869,33.333333333333336,-0.89,-0.42,0.171
72052,1755606940261,61.48,-69.34,-43.25,782,776,778,395,868,34.48275862068966,-0.89,-0.415,0.161
72082,1755606940290,61.33,-69.55,-43.29,783,775,778,392,873,33.333333333333336,-0.892,-0.419,0.16
72111,1755606940320,61.21,-69.64,-43.26,780,779,779,353,866,34.48275862068966,-0.897,-0.427,0.169
72141,1755606940350,61.18,-69.69,-43.2,780,777,782,365,867,33.333333333333336,-0.892,-0.426,0.176
72171,1755606940379,61.19,-69.73,-43.2,778,778,778,410,864,33.333333333333336,-0.89,-0.418,0.182
72200,1755606940409,61.08,-69.58,-43.19,780,768,778,405,868,34.48275862068966,-0.893,-0.414,0.189
72230,1755606940438,61.09,-69.44,-43.18,783,775,775,359,867,33.333333333333336,-0.894,-0.418,0.192
72259,1755606940468,61.21,-69.38,-43.16,781,772,780,335,868,34.48275862068966,-0.889,-0.426,0.192
72289,1755606940497,61.27,-69.27,-43.11,781,769,783,368,866,33.333333333333336,-0.887,-0.422,0.191
72318,1755606940527,61.3,-69.13,-43.06,779,770,783,408,873,34.48275862068966,-0.892,-0.417,0.187
72348,1755606940556,61.37,-68.93,-43.05,780,781,776,385,872,33.333333333333336,-0.893,-0.414,0.179
72377,1755606940586,61.28,-68.84,-43.03,782,774,780,345,865,34.48275862068966,-0.885,-0.415,0.173
72407,1755606940616,61.3,-68.86,-43.05,778,774,781,363,868,33.333333333333336,-0.89,-0.419,0.174
72437,1755606940646,61.2,-68.77,-43.02,783,780,781,417,862,33.333333333333336,-0.891,-0.417,0.178
72496,1755606940705,61.14,-68.55,-43.03,778,774,782,368,871,33.333333333333336,-0.891,-0.419,0.187
72526,1755606940734,61.2,-68.47,-43.01,777,777,779,356,867,33.333333333333336,-0.89,-0.421,0.189
72555,1755606940764,61.29,-68.4,-42.99,781,774,782,410,869,34.48275862068966,-0.894,-0.415,0.19
72585,1755606940794,61.28,-68.15,-42.97,779,770,780,422,865,33.333333333333336,-0.894,-0.414,0.19
72615,1755606940823,61.4,-68.04,-42.98,781,770,776,379,857,33.333333333333336,-0.894,-0.416,0.187
72644,1755606940853,61.45,-68.04,-42.98,781,769,776,350,867,34.48275862068966,-0.893,-0.414,0.179
72674,1755606940882,61.42,-68.05,-43.01,779,773,777,358,870,33.333333333333336,-0.893,-0.413,0.176
72704,1755606940912,61.41,-68.05,-43.02,779,779,780,362,867,33.333333333333336,-0.895,-0.419,0.175
72733,1755606940942,61.37,-68.13,-43.0,780,781,776,371,865,34.48275862068966,-0.893,-0.418,0.175
72763,1755606940972,61.3,-68.19,-42.99,781,775,776,343,867,33.333333333333336,-0.891,-0.411,0.182
72793,1755606941001,61.27,-68.15,-43.02,783,778,779,334,865,33.333333333333336,-0.893,-0.413,0.191
72822,1755606941031,61.43,-68.12,-43.05,776,769,780,391,866,34.48275862068966,-0.893,-0.416,0.192
72852,1755606941061,61.53,-68.07,-43.06,781,777,776,413,866,33.333333333333336,-0.892,-0.416,0.189
72882,1755606941090,61.57,-67.96,-43.07,780,775,781,380,868,33.333333333333336,-0.89,-0.415,0.187
72911,1755606941120,61.63,-67.88,-43.1,777,777,778,307,868,34.48275862068966,-0.89,-0.416,0.185
73000,1755606941209,61.75,-67.86,-43.14,784,773,780,403,867,34.48275862068966,-0.895,-0.411,0.18
73030,1755606941239,61.7,-67.9,-43.19,783,778,779,346,874,33.333333333333336,-0.893,-0.411,0.178
73060,1755606941268,61.75,-68.07,-43.27,779,779,780,344,867,33.333333333333336,-0.894,-0.413,0.175
73089,1755606941298,61.69,-68.22,-43.34,777,773,781,392,866,34.48275862068966,-0.893,-0.415,0.177
73178,1755606941387,61.7,-68.21,-43.54,782,776,779,322,866,34.48275862068966,-0.889,-0.418,0.191
73208,1755606941416,61.68,-68.06,-43.56,782,769,782,352,862,33.333333333333336,-0.891,-0.422,0.193
73237,1755606941446,61.86,-67.93,-43.64,781,780,780,397,864,34.48275862068966,-0.888,-0.425,0.186
73267,1755606941475,61.97,-67.88,-43.69,777,777,778,415,866,33.333333333333336,-0.89,-0.418,0.181
73296,1755606941505,62.09,-67.95,-43.76,780,766,774,386,874,34.48275862068966,-0.889,-0.419,0.177
73326,1755606941534,62.13,-67.99,-43.8,781,774,779,360,871,33.333333333333336,-0.891,-0.428,0.173
73356,1755606941564,62.23,-68.02,-43.83,776,776,781,389,869,33.333333333333336,-0.887,-0.428,0.174
73385,1755606941594,62.21,-68.11,-43.86,781,775,775,419,864,34.48275862068966,-0.888,-0.425,0.177
73415,1755606941624,62.2,-68.08,-43.91,783,776,779,389,869,33.333333333333336,-0.89,-0.426,0.176
73445,1755606941653,62.31,-68.03,-43.93,779,776,779,346,867,33.333333333333336,-0.889,-0.429,0.174
73474,1755606941683,62.24,-67.99,-43.92,783,769,775,361,864,34.48275862068966,-0.888,-0.427,0.172
73504,1755606941712,62.15,-67.99,-43.94,780,775,774,403,867,33.333333333333336,-0.89,-0.426,0.168
73533,1755606941742,62.18,-68.0,-43.95,782,778,779,394,873,34.48275862068966,-0.889,-0.429,0.17
73563,1755606941771,62.16,-67.95,-43.95,780,777,779,347,864,33.333333333333336,-0.887,-0.432,0.174
73593,1755606941801,62.2,-67.98,-43.94,781,773,779,339,869,33.333333333333336,-0.888,-0.429,0.171
73622,1755606941831,62.21,-68.02,-43.97,784,777,779,392,868,34.48275862068966,-0.889,-0.425,0.17
73652,1755606941860,62.12,-67.94,-43.98,786,778,783,400,871,33.333333333333336,-0.889,-0.429,0.17
73711,1755606941920,62.12,-67.94,-43.96,780,778,780,332,868,34.48275862068966,-0.887,-0.433,0.172
73741,1755606941949,62.14,-67.96,-43.96,783,776,778,363,869,33.333333333333336,-0.887,-0.428,0.172
73770,1755606941979,62.14,-67.95,-43.98,782,775,782,411,862,34.48275862068966,-0.889,-0.428,0.17
73800,1755606942008,62.12,-67.94,-43.99,779,771,778,405,869,33.333333333333336,-0.891,-0.431,0.17
73829,1755606942038,62.06,-67.97,-44.01,779,774,782,351,862,34.48275862068966,-0.888,-0.431,0.169
73859,1755606942068,62.05,-67.98,-44.02,782,775,779,357,868,33.333333333333336,-0.889,-0.431,0.172
73889,1755606942097,61.98,-67.88,-43.99,778,777,780,390,870,33.333333333333336,-0.89,-0.432,0.175
73918,1755606942127,61.96,-67.82,-43.99,782,772,781,417,869,34.48275862068966,-0.889,-0.432,0.174
73938,1755606942147,61.97,-67.87,-43.99,780,779,782,388,864,50.0,-0.887,-0.432,0.173
73968,1755606942177,61.92,-67.84,-43.95,781,772,780,416,869,33.333333333333336,-0.887,-0.43,0.172
73998,1755606942206,61.94,-67.94,-43.98,779,773,775,383,866,33.333333333333336,-0.887,-0.429,0.174
74027,1755606942236,61.92,-68.05,-43.99,782,772,778,343,865,34.48275862068966,-0.888,-0.431,0.176
74057,1755606942266,61.86,-67.98,-43.98,784,772,779,363,869,33.333333333333336,-0.887,-0.431,0.176
74087,1755606942296,61.84,-67.94,-43.98,785,773,778,395,863,33.333333333333336,-0.888,-0.427,0.177
74116,1755606942325,61.8,-67.88,-43.98,781,776,781,399,870,34.48275862068966,-0.888,-0.429,0.175
74146,1755606942355,61.74,-67.86,-43.95,779,773,780,353,857,33.333333333333336,-0.886,-0.432,0.172
74176,1755606942384,61.66,-67.86,-43.92,781,768,778,358,868,33.333333333333336,-0.888,-0.43,0.172
74235,1755606942443,61.5,-67.82,-43.9,781,773,780,420,868,33.333333333333336,-0.887,-0.432,0.178
74264,1755606942473,61.54,-67.84,-43.89,780,779,781,376,869,34.48275862068966,-0.886,-0.429,0.184
74294,1755606942502,61.56,-67.81,-43.88,782,778,778,358,868,33.333333333333336,-0.886,-0.427,0.186
74323,1755606942532,61.55,-67.68,-43.86,781,772,781,382,870,34.48275862068966,-0.889,-0.429,0.181
74353,1755606942562,61.53,-67.71,-43.85,782,769,777,424,874,33.333333333333336,-0.887,-0.43,0.177
