timestamp_ms,recv_timestamp_ms,pitch,roll,yaw,flex1,flex2,flex3,flex4,flex5,sampling_hz,accel_x,accel_y,accel_z
161911,1755604208574,10.15,62.16,-25.45,847,914,887,382,920,33.333333333333336,-0.163,0.875,0.469
161940,1755604208576,10.13,62.2,-25.44,839,920,863,390,913,34.48275862068966,-0.163,0.874,0.472
161970,1755604208578,10.15,62.21,-25.45,843,911,882,332,908,33.333333333333336,-0.163,0.874,0.471
161999,1755604208580,10.15,62.18,-25.46,842,917,894,357,916,34.48275862068966,-0.16,0.874,0.468
162029,1755604208582,10.13,62.16,-25.48,844,909,889,404,919,33.333333333333336,-0.162,0.873,0.47
162059,1755604208585,10.15,62.18,-25.48,844,919,887,402,915,33.333333333333336,-0.165,0.874,0.47
162088,1755604208587,10.14,62.2,-25.49,844,922,886,361,918,34.48275862068966,-0.163,0.875,0.47
162118,1755604208589,10.15,62.19,-25.5,839,919,889,347,918,33.333333333333336,-0.162,0.873,0.47
162148,1755604208591,10.16,62.2,-25.52,844,917,890,359,914,33.333333333333336,-0.164,0.874,0.469
162177,1755604208593,10.14,62.21,-25.5,843,918,885,394,934,34.48275862068966,-0.162,0.874,0.469
162207,1755604208595,10.15,62.19,-25.53,845,922,890,389,915,33.333333333333336,-0.161,0.875,0.468
162237,1755604208597,10.15,62.16,-25.56,841,922,895,344,915,33.333333333333336,-0.163,0.875,0.469
162266,1755604208599,10.15,62.19,-25.56,848,915,889,342,920,34.48275862068966,-0.164,0.875,0.471
162296,1755604208601,10.14,62.21,-25.54,842,918,884,387,919,33.333333333333336,-0.162,0.873,0.467
162325,1755604208604,10.12,62.15,-25.56,838,922,882,409,919,34.48275862068966,-0.161,0.874,0.467
162355,1755604208606,10.11,62.14,-25.57,828,910,879,366,910,33.333333333333336,-0.162,0.875,0.47
162385,1755604208608,10.09,62.19,-25.55,845,911,883,327,913,33.333333333333336,-0.164,0.874,0.472
162414,1755604208611,10.11,62.2,-25.55,845,922,882,354,926,34.48275862068966,-0.163,0.873,0.471
162444,1755604208613,10.12,62.19,-25.57,842,911,892,402,915,33.333333333333336,-0.161,0.874,0.471
162473,1755604208615,10.11,62.2,-25.56,845,922,893,387,913,34.48275862068966,-0.161,0.874,0.47
162503,1755604208617,10.11,62.17,-25.57,837,918,880,339,912,33.333333333333336,-0.163,0.874,0.469
162532,1755604208620,10.13,62.15,-25.59,848,923,876,360,916,34.48275862068966,-0.164,0.874,0.471
162562,1755604208622,10.1,62.15,-25.56,840,915,886,404,913,33.333333333333336,-0.162,0.873,0.471
162592,1755604208624,10.06,62.14,-25.53,836,916,880,408,919,33.333333333333336,-0.163,0.874,0.471
162621,1755604208626,9.98,62.18,-25.43,841,924,882,379,905,34.48275862068966,-0.163,0.874,0.472
162651,1755604208629,9.98,62.21,-25.39,843,910,888,351,911,33.333333333333336,-0.161,0.872,0.472
162710,1755604208632,9.91,62.18,-25.41,835,914,890,405,920,34.48275862068966,-0.158,0.875,0.466
162739,1755604208635,9.86,62.1,-25.45,846,922,875,397,910,34.48275862068966,-0.157,0.872,0.468
162769,1755604208637,9.82,62.1,-25.47,844,918,891,356,931,33.333333333333336,-0.159,0.874,0.472
162798,1755604208652,9.83,62.11,-25.45,842,929,880,350,922,34.48275862068966,-0.159,0.876,0.471
162827,1755604208681,9.83,62.14,-25.45,840,913,890,392,911,34.48275862068966,-0.157,0.878,0.469
162857,1755604208711,9.84,62.11,-25.47,836,925,887,384,919,33.333333333333336,-0.158,0.876,0.47
162887,1755604208741,9.83,62.09,-25.47,842,904,879,337,918,33.333333333333336,-0.157,0.875,0.469
162917,1755604208771,9.81,62.14,-25.46,840,913,889,355,924,33.333333333333336,-0.157,0.877,0.471
162946,1755604208800,9.82,62.11,-25.48,836,919,885,397,919,34.48275862068966,-0.159,0.877,0.469
162976,1755604208830,9.82,62.13,-25.48,838,916,886,406,913,33.333333333333336,-0.157,0.876,0.471
163005,1755604208859,9.82,62.15,-25.47,836,914,882,371,922,34.48275862068966,-0.155,0.875,0.469
163034,1755604208888,9.84,62.12,-25.51,842,915,892,343,924,34.48275862068966,-0.159,0.877,0.471
163064,1755604208918,9.85,62.13,-25.52,844,921,884,385,921,33.333333333333336,-0.158,0.875,0.471
163094,1755604208947,9.84,62.13,-25.52,837,925,890,415,916,33.333333333333336,-0.155,0.873,0.47
163123,1755604208977,9.82,62.12,-25.52,841,913,882,395,922,34.48275862068966,-0.155,0.874,0.468
163153,1755604209007,9.8,62.1,-25.53,841,916,893,301,916,33.333333333333336,-0.156,0.875,0.469
163182,1755604209036,9.82,62.06,-25.55,843,917,886,328,911,34.48275862068966,-0.157,0.874,0.47
163212,1755604209066,9.81,62.07,-25.53,844,919,896,388,918,33.333333333333336,-0.158,0.874,0.473
163242,1755604209096,9.81,62.08,-25.54,847,917,889,413,914,33.333333333333336,-0.157,0.872,0.474
163271,1755604209125,9.82,62.12,-25.52,843,910,882,376,915,34.48275862068966,-0.156,0.873,0.473
163301,1755604209155,9.79,62.15,-25.51,838,919,879,351,923,33.333333333333336,-0.155,0.874,0.47
163330,1755604209184,9.8,62.15,-25.53,843,910,892,382,923,34.48275862068966,-0.156,0.875,0.469
163360,1755604209214,9.82,62.1,-25.56,839,913,894,398,914,33.333333333333336,-0.157,0.874,0.469
163390,1755604209243,9.78,62.07,-25.55,840,919,887,369,919,33.333333333333336,-0.156,0.873,0.47
163419,1755604209273,9.75,62.06,-25.54,844,916,888,348,915,34.48275862068966,-0.154,0.873,0.47
163448,1755604209302,9.73,62.06,-25.55,844,929,882,372,915,34.48275862068966,-0.155,0.873,0.472
163478,1755604209332,9.74,62.08,-25.55,841,919,888,418,912,33.333333333333336,-0.157,0.875,0.471
163507,1755604209361,9.76,62.03,-25.55,839,915,877,402,910,34.48275862068966,-0.154,0.872,0.471
163537,1755604209391,9.82,62.03,-25.57,843,919,888,354,920,33.333333333333336,-0.155,0.872,0.472
163566,1755604209420,9.84,62.03,-25.57,846,912,891,361,915,34.48275862068966,-0.157,0.874,0.47
163596,1755604209450,9.82,62.03,-25.58,846,909,895,401,921,33.333333333333336,-0.153,0.874,0.47
163625,1755604209479,9.87,62.06,-25.55,849,927,891,406,917,34.48275862068966,-0.158,0.875,0.473
163655,1755604209509,9.82,62.07,-25.48,841,919,889,374,920,33.333333333333336,-0.156,0.873,0.47
163684,1755604209538,9.82,62.07,-25.48,842,927,904,348,912,34.48275862068966,-0.155,0.874,0.471
163714,1755604209568,9.86,62.03,-25.51,842,915,880,377,917,33.333333333333336,-0.155,0.872,0.471
163743,1755604209597,9.8,62.02,-25.47,845,913,892,415,912,34.48275862068966,-0.155,0.875,0.471
163773,1755604209627,9.84,61.95,-25.52,848,904,896,381,923,33.333333333333336,-0.154,0.872,0.471
163802,1755604209657,9.82,61.92,-25.54,848,914,886,356,925,34.48275862068966,-0.153,0.872,0.471
163832,1755604209687,9.75,61.93,-25.5,848,907,889,352,922,33.333333333333336,-0.153,0.873,0.473
163862,1755604209716,9.76,61.93,-25.55,850,919,890,402,918,33.333333333333336,-0.151,0.874,0.473
163892,1755604209746,9.79,61.89,-25.6,850,916,893,402,919,33.333333333333336,-0.153,0.873,0.475
163921,1755604209776,9.76,61.91,-25.59,848,919,887,368,917,34.48275862068966,-0.152,0.872,0.474
163951,1755604209805,9.72,61.92,-25.61,848,915,884,345,916,33.333333333333336,-0.152,0.874,0.471
163980,1755604209834,9.64,61.88,-25.63,846,915,893,368,918,34.48275862068966,-0.152,0.873,0.472
164010,1755604209864,9.66,61.89,-25.65,849,912,887,394,913,33.333333333333336,-0.154,0.873,0.477
164039,1755604209893,9.68,61.9,-25.66,846,909,892,380,922,34.48275862068966,-0.154,0.873,0.476
164068,1755604209923,9.67,61.9,-25.67,848,926,891,340,917,34.48275862068966,-0.155,0.873,0.477
164098,1755604209952,9.68,61.9,-25.68,848,918,893,369,915,33.333333333333336,-0.153,0.871,0.476
164127,1755604209981,9.67,61.9,-25.68,843,920,891,419,916,34.48275862068966,-0.153,0.872,0.475
164157,1755604210011,9.68,61.86,-25.71,844,916,889,390,914,33.333333333333336,-0.153,0.873,0.473
164206,1755604210061,9.68,61.83,-25.73,849,919,891,401,915,50.0,-0.155,0.872,0.478
164236,1755604210090,9.64,61.85,-25.72,847,916,887,361,913,33.333333333333336,-0.154,0.872,0.477
164266,1755604210120,9.66,61.85,-25.74,842,914,897,348,916,33.333333333333336,-0.153,0.872,0.478
164325,1755604210179,9.66,61.9,-25.75,847,916,892,411,907,33.333333333333336,-0.155,0.872,0.477
164355,1755604210209,9.62,61.93,-25.75,845,914,876,348,912,33.333333333333336,-0.153,0.872,0.474
164384,1755604210238,9.56,61.91,-25.75,847,913,885,330,918,34.48275862068966,-0.155,0.872,0.476
164414,1755604210268,9.5,61.93,-25.73,847,909,884,378,905,33.333333333333336,-0.154,0.873,0.476
164443,1755604210297,9.49,61.89,-25.73,839,919,891,406,918,34.48275862068966,-0.151,0.872,0.477
164472,1755604210326,9.48,61.89,-25.75,837,921,893,378,919,34.48275862068966,-0.152,0.872,0.477
164502,1755604210356,9.48,61.88,-25.76,841,918,881,347,915,33.333333333333336,-0.153,0.873,0.476
164531,1755604210385,9.46,61.82,-25.77,839,917,887,356,913,34.48275862068966,-0.151,0.872,0.477
164561,1755604210415,9.45,61.81,-25.79,847,924,877,397,913,33.333333333333336,-0.151,0.871,0.478
164591,1755604210445,9.47,61.8,-25.8,847,907,888,390,918,33.333333333333336,-0.152,0.871,0.479
164620,1755604210474,9.49,61.78,-25.8,844,911,894,347,909,34.48275862068966,-0.153,0.872,0.479
164650,1755604210504,9.47,61.71,-25.81,838,918,894,342,919,33.333333333333336,-0.151,0.871,0.476
164679,1755604210533,9.43,61.74,-25.81,844,908,881,380,916,34.48275862068966,-0.15,0.872,0.479
164709,1755604210563,9.43,61.76,-25.84,843,911,884,388,910,33.333333333333336,-0.151,0.871,0.48
164738,1755604210592,9.44,61.74,-25.87,845,916,885,362,912,34.48275862068966,-0.152,0.872,0.479
164768,1755604210622,9.44,61.73,-25.86,843,915,888,337,912,33.333333333333336,-0.152,0.871,0.478
164797,1755604210651,9.4,61.71,-25.87,845,917,890,386,915,34.48275862068966,-0.15,0.872,0.477
164827,1755604210681,9.38,61.71,-25.91,836,912,888,408,910,33.333333333333336,-0.151,0.873,0.479
164856,1755604210710,9.37,61.67,-25.92,841,913,883,385,912,34.48275862068966,-0.152,0.87,0.482
164886,1755604210740,9.36,61.72,-25.92,842,914,882,349,911,33.333333333333336,-0.149,0.871,0.48
164915,1755604210770,9.32,61.67,-25.95,840,921,884,347,918,34.48275862068966,-0.149,0.872,0.477
164945,1755604210799,9.24,61.63,-25.93,845,913,888,416,914,33.333333333333336,-0.152,0.871,0.48
164974,1755604210828,9.23,61.62,-25.95,836,914,890,398,921,34.48275862068966,-0.15,0.87,0.482
165004,1755604210858,9.23,61.68,-25.93,841,915,904,361,916,33.333333333333336,-0.152,0.87,0.483
165034,1755604210888,9.17,61.69,-25.89,842,919,886,348,917,33.333333333333336,-0.152,0.869,0.482
165063,1755604210918,9.12,61.7,-25.88,840,913,882,383,916,34.48275862068966,-0.148,0.87,0.48
165093,1755604210947,9.11,61.72,-25.92,840,906,883,397,920,33.333333333333336,-0.147,0.871,0.481
165123,1755604210977,9.11,61.7,-25.95,842,909,884,383,913,33.333333333333336,-0.148,0.871,0.48
165152,1755604211006,9.11,61.67,-25.99,841,917,883,346,919,34.48275862068966,-0.149,0.871,0.483
165182,1755604211036,9.52,61.12,-26.09,836,914,891,377,918,33.333333333333336,-0.145,0.873,0.481
165211,1755604211066,9.96,60.49,-26.27,841,906,890,431,909,34.48275862068966,-0.145,0.871,0.483
165241,1755604211095,10.19,60.17,-26.43,836,915,899,424,910,33.333333333333336,-0.151,0.868,0.489
165271,1755604211124,10.18,60.15,-26.46,840,915,898,368,921,33.333333333333336,-0.156,0.865,0.495
165300,1755604211154,10.13,60.32,-26.43,832,916,886,359,917,34.48275862068966,-0.157,0.862,0.497
165329,1755604211184,9.26,61.68,-26.14,837,910,881,407,918,34.48275862068966,-0.167,0.861,0.498
165359,1755604211214,9.51,61.32,-26.17,844,921,889,409,915,33.333333333333336,-0.16,0.86,0.494
165389,1755604211243,9.51,61.32,-26.19,835,900,879,361,913,33.333333333333336,-0.159,0.862,0.488
165418,1755604211272,9.48,61.37,-26.2,842,915,889,332,913,34.48275862068966,-0.161,0.865,0.49
165448,1755604211302,9.46,61.46,-26.17,841,912,885,376,915,33.333333333333336,-0.155,0.862,0.488
165477,1755604211331,9.45,61.45,-26.22,838,914,890,407,908,34.48275862068966,-0.153,0.865,0.487
165507,1755604211361,9.43,61.45,-26.22,845,922,890,388,920,33.333333333333336,-0.156,0.866,0.487
165537,1755604211391,9.45,61.45,-26.25,843,919,883,346,916,33.333333333333336,-0.155,0.867,0.485
165566,1755604211420,9.46,61.44,-26.3,836,919,881,351,918,34.48275862068966,-0.155,0.868,0.485
165596,1755604211450,9.47,61.47,-26.27,844,905,888,414,915,33.333333333333336,-0.157,0.866,0.486
165625,1755604211479,9.46,61.46,-26.26,838,919,886,415,908,34.48275862068966,-0.152,0.867,0.482
165655,1755604211509,9.44,61.4,-26.31,838,923,894,359,912,33.333333333333336,-0.15,0.868,0.484
165685,1755604211538,9.45,61.38,-26.33,842,912,884,348,916,33.333333333333336,-0.153,0.867,0.484
165714,1755604211568,9.43,61.34,-26.33,843,908,889,391,921,34.48275862068966,-0.153,0.867,0.485
165743,1755604211598,9.44,61.34,-26.36,841,908,891,415,913,34.48275862068966,-0.154,0.869,0.486
165773,1755604211627,9.41,61.33,-26.36,840,914,891,393,914,33.333333333333336,-0.153,0.867,0.484
165803,1755604211657,9.41,61.31,-26.4,838,917,880,346,907,33.333333333333336,-0.151,0.867,0.483
165832,1755604211686,9.39,61.29,-26.47,838,909,883,319,919,34.48275862068966,-0.147,0.869,0.482
165862,1755604211716,9.33,61.24,-26.5,841,913,884,390,918,33.333333333333336,-0.146,0.869,0.482
165891,1755604211745,9.31,61.2,-26.57,831,923,893,385,913,34.48275862068966,-0.148,0.87,0.484
165921,1755604211775,9.27,61.2,-26.62,847,919,900,347,919,33.333333333333336,-0.153,0.868,0.486
165950,1755604211805,9.28,61.2,-26.64,840,913,890,338,917,34.48275862068966,-0.158,0.866,0.487
165980,1755604211834,9.31,61.2,-26.67,842,905,888,382,916,33.333333333333336,-0.16,0.866,0.487
166009,1755604211864,9.34,61.25,-26.69,842,916,874,413,913,34.48275862068966,-0.162,0.867,0.489
166039,1755604211893,9.38,61.28,-26.69,835,916,878,373,916,33.333333333333336,-0.158,0.867,0.487
166069,1755604211923,9.37,61.27,-26.7,840,913,878,332,928,33.333333333333336,-0.154,0.868,0.484
166098,1755604211952,9.39,61.23,-26.77,839,915,883,366,916,34.48275862068966,-0.156,0.868,0.486
166128,1755604211982,9.39,61.23,-26.75,844,917,899,405,915,33.333333333333336,-0.157,0.867,0.488
166157,1755604212011,9.41,61.25,-26.77,840,919,883,395,914,34.48275862068966,-0.157,0.867,0.487
166186,1755604212040,9.46,61.25,-26.82,836,920,887,354,922,34.48275862068966,-0.158,0.867,0.488
166216,1755604212070,9.44,61.24,-26.83,839,915,899,363,916,33.333333333333336,-0.156,0.865,0.486
166245,1755604212099,9.45,61.24,-26.85,846,920,878,416,913,34.48275862068966,-0.156,0.866,0.485
166305,1755604212159,9.39,61.21,-26.88,841,906,887,362,919,33.333333333333336,-0.154,0.866,0.485
166334,1755604212188,9.4,61.19,-26.91,842,914,894,354,917,34.48275862068966,-0.157,0.866,0.487
166364,1755604212218,9.44,61.18,-26.93,841,905,889,384,917,33.333333333333336,-0.161,0.866,0.49
166393,1755604212247,9.46,61.2,-26.95,836,920,883,411,919,34.48275862068966,-0.159,0.865,0.49
166423,1755604212277,9.5,61.2,-26.98,840,905,881,373,914,33.333333333333336,-0.158,0.866,0.486
166452,1755604212307,9.51,61.16,-27.02,842,920,888,355,920,34.48275862068966,-0.158,0.866,0.484
166482,1755604212336,9.5,61.12,-27.04,844,918,889,368,914,33.333333333333336,-0.159,0.866,0.485
166512,1755604212366,9.52,61.09,-27.11,838,919,884,410,905,33.333333333333336,-0.161,0.866,0.487
166541,1755604212395,9.57,61.05,-27.14,837,912,895,405,924,34.48275862068966,-0.164,0.865,0.491
166571,1755604212425,9.61,61.1,-27.11,837,915,886,362,909,33.333333333333336,-0.163,0.865,0.492
166600,1755604212455,9.65,61.17,-27.1,844,917,889,373,918,34.48275862068966,-0.162,0.865,0.489
166630,1755604212484,9.67,61.18,-27.12,831,916,882,420,902,33.333333333333336,-0.162,0.867,0.486
166659,1755604212513,9.72,61.18,-27.16,837,914,893,416,913,34.48275862068966,-0.164,0.866,0.487
166689,1755604212542,9.78,61.27,-27.15,834,920,879,363,911,33.333333333333336,-0.165,0.866,0.489
166718,1755604212572,9.8,61.33,-27.15,841,921,892,341,915,34.48275862068966,-0.161,0.867,0.485
166747,1755604212601,9.82,61.26,-27.21,834,919,884,401,915,34.48275862068966,-0.16,0.867,0.482
166777,1755604212631,9.81,61.23,-27.24,843,909,881,399,916,33.333333333333336,-0.164,0.866,0.483
166806,1755604212660,9.8,61.27,-27.22,840,915,880,382,910,34.48275862068966,-0.167,0.867,0.483
166835,1755604212690,9.81,61.25,-27.23,841,913,882,344,915,34.48275862068966,-0.165,0.867,0.483
166865,1755604212719,9.82,61.18,-27.25,841,920,883,369,917,33.333333333333336,-0.164,0.866,0.485
166895,1755604212749,9.85,61.22,-27.27,836,919,885,401,929,33.333333333333336,-0.166,0.866,0.488
166924,1755604212780,9.88,61.26,-27.26,838,910,891,385,915,34.48275862068966,-0.164,0.868,0.486
166945,1755604212799,9.85,61.25,-27.27,842,912,884,385,916,47.61904761904762,-0.159,0.866,0.482
166975,1755604212829,9.83,61.24,-27.33,839,918,886,378,923,33.333333333333336,-0.161,0.866,0.481
167004,1755604212858,9.84,61.25,-27.36,843,908,888,326,913,34.48275862068966,-0.166,0.867,0.481
167034,1755604212888,9.85,61.25,-27.35,830,919,885,338,911,33.333333333333336,-0.168,0.869,0.482
167063,1755604212917,9.9,61.24,-27.39,839,918,883,375,920,34.48275862068966,-0.165,0.868,0.48
167093,1755604212946,9.9,61.19,-27.44,836,911,891,386,915,33.333333333333336,-0.163,0.866,0.48
167122,1755604212976,9.88,61.11,-27.52,846,915,885,360,916,34.48275862068966,-0.164,0.865,0.485
167151,1755604213005,9.9,61.1,-27.55,843,917,890,342,915,34.48275862068966,-0.167,0.864,0.491
167181,1755604213035,9.9,61.14,-27.54,837,917,890,375,916,33.333333333333336,-0.167,0.862,0.492
167210,1755604213064,9.94,61.14,-27.55,835,916,885,412,917,34.48275862068966,-0.17,0.863,0.492
167240,1755604213094,9.98,61.14,-27.54,844,905,888,372,916,33.333333333333336,-0.17,0.863,0.49
167269,1755604213123,10.02,61.15,-27.52,834,907,885,332,918,34.48275862068966,-0.169,0.864,0.488
167298,1755604213153,10.04,61.16,-27.53,852,912,900,363,915,34.48275862068966,-0.167,0.863,0.484
167319,1755604213173,10.03,61.13,-27.55,843,917,890,343,916,47.61904761904762,-0.167,0.864,0.483
167348,1755604213202,10.01,61.09,-27.57,835,918,884,375,900,34.48275862068966,-0.17,0.864,0.487
167378,1755604213232,10.04,61.08,-27.58,843,916,895,422,928,33.333333333333336,-0.17,0.864,0.49
167407,1755604213262,10.09,61.09,-27.6,838,920,876,397,915,34.48275862068966,-0.169,0.864,0.49
167437,1755604213291,10.14,61.12,-27.62,844,918,894,337,916,33.333333333333336,-0.17,0.865,0.488
167467,1755604213321,10.14,61.12,-27.65,845,910,890,337,912,33.333333333333336,-0.167,0.865,0.484
167496,1755604213350,10.14,61.13,-27.68,841,913,904,388,921,34.48275862068966,-0.169,0.864,0.483
167526,1755604213380,10.14,61.1,-27.71,844,908,884,413,918,33.333333333333336,-0.171,0.863,0.485
167555,1755604213409,10.13,61.11,-27.71,841,913,894,357,919,34.48275862068966,-0.17,0.863,0.488
167584,1755604213439,10.18,61.14,-27.74,844,908,881,336,914,34.48275862068966,-0.171,0.863,0.489
167614,1755604213468,10.17,61.15,-27.73,844,913,898,382,914,33.333333333333336,-0.169,0.863,0.485
167644,1755604213498,10.15,61.14,-27.75,835,916,891,414,913,33.333333333333336,-0.171,0.864,0.485
167673,1755604213527,10.17,61.16,-27.78,846,911,875,385,918,34.48275862068966,-0.173,0.864,0.487
167703,1755604213557,10.19,61.19,-27.78,844,912,887,345,912,33.333333333333336,-0.172,0.863,0.487
167732,1755604213586,10.2,61.21,-27.77,842,904,890,377,915,34.48275862068966,-0.171,0.863,0.483
167761,1755604213615,10.21,61.2,-27.81,839,921,869,422,912,34.48275862068966,-0.173,0.864,0.483
167791,1755604213645,10.22,61.23,-27.8,843,914,882,408,908,33.333333333333336,-0.174,0.864,0.484
167820,1755604213674,10.23,61.2,-27.78,841,915,893,356,904,34.48275862068966,-0.173,0.864,0.483
167850,1755604213704,10.23,61.16,-27.79,842,912,883,359,915,33.333333333333336,-0.171,0.863,0.484
167879,1755604213734,10.21,61.15,-27.79,845,916,881,404,915,34.48275862068966,-0.169,0.863,0.484
167909,1755604213763,10.22,61.18,-27.82,837,919,885,397,915,33.333333333333336,-0.17,0.865,0.484
167939,1755604213793,10.26,61.2,-27.84,839,918,888,363,918,33.333333333333336,-0.172,0.865,0.484
167968,1755604213823,10.28,61.23,-27.84,848,911,885,333,913,34.48275862068966,-0.174,0.866,0.483
167998,1755604213852,10.29,61.23,-27.86,850,908,883,379,911,33.333333333333336,-0.173,0.865,0.484
168028,1755604213882,10.29,61.24,-27.86,842,914,888,423,920,33.333333333333336,-0.173,0.864,0.483
168057,1755604213912,10.31,61.23,-27.9,841,904,890,400,916,34.48275862068966,-0.173,0.865,0.484
168087,1755604213941,10.31,61.23,-27.9,839,904,886,343,912,33.333333333333336,-0.173,0.864,0.485
168117,1755604213971,10.32,61.27,-27.91,841,915,885,360,921,33.333333333333336,-0.172,0.866,0.484
168146,1755604214000,10.33,61.27,-27.93,836,914,884,408,904,34.48275862068966,-0.173,0.866,0.482
168176,1755604214030,10.31,61.27,-27.94,839,906,890,399,914,33.333333333333336,-0.172,0.866,0.482
168205,1755604214060,10.32,61.3,-27.95,835,916,887,347,911,34.48275862068966,-0.174,0.867,0.483
168235,1755604214089,10.34,61.3,-27.97,844,907,892,338,917,33.333333333333336,-0.173,0.865,0.481
168264,1755604214118,10.32,61.27,-27.99,844,917,869,394,916,34.48275862068966,-0.172,0.865,0.482
168294,1755604214148,10.34,61.29,-27.98,842,919,884,422,926,33.333333333333336,-0.175,0.865,0.483
168323,1755604214177,10.33,61.31,-27.97,838,909,892,368,917,34.48275862068966,-0.173,0.865,0.481
168352,1755604214206,10.35,61.31,-28.0,843,907,881,302,912,34.48275862068966,-0.172,0.865,0.482
168382,1755604214236,10.36,61.3,-28.01,843,913,890,354,916,33.333333333333336,-0.173,0.865,0.48
168411,1755604214266,10.36,61.31,-28.02,837,917,889,390,914,34.48275862068966,-0.175,0.865,0.483
168441,1755604214295,10.36,61.32,-28.02,840,918,889,391,917,33.333333333333336,-0.173,0.864,0.482
168471,1755604214325,10.35,61.28,-28.05,839,907,881,352,913,33.333333333333336,-0.173,0.863,0.482
168501,1755604214355,10.35,61.27,-28.07,837,910,885,348,910,33.333333333333336,-0.175,0.864,0.485
168530,1755604214384,10.35,61.31,-28.05,838,911,889,398,921,34.48275862068966,-0.174,0.865,0.484
168560,1755604214414,10.34,61.31,-28.05,842,905,879,399,909,33.333333333333336,-0.172,0.866,0.481
168589,1755604214444,10.34,61.25,-28.1,841,910,885,360,918,34.48275862068966,-0.174,0.865,0.48
168619,1755604214473,10.34,61.25,-28.1,840,911,887,306,914,33.333333333333336,-0.176,0.864,0.485
168649,1755604214503,10.33,61.31,-28.05,842,917,892,359,914,33.333333333333336,-0.176,0.865,0.485
168669,1755604214523,10.32,61.34,-28.05,840,915,886,341,906,50.0,-0.172,0.865,0.484
168698,1755604214552,10.37,61.36,-28.07,840,907,882,389,915,34.48275862068966,-0.173,0.865,0.486
168728,1755604214582,10.41,61.44,-28.05,833,915,890,418,909,33.333333333333336,-0.175,0.867,0.484
168757,1755604214611,10.41,61.48,-28.03,838,918,896,376,920,34.48275862068966,-0.172,0.867,0.479
168787,1755604214641,10.42,61.45,-28.07,841,916,885,342,915,33.333333333333336,-0.171,0.867,0.478
168816,1755604214670,10.43,61.43,-28.07,841,923,884,365,915,34.48275862068966,-0.174,0.867,0.481
168845,1755604214699,10.46,61.44,-28.06,841,918,878,412,916,34.48275862068966,-0.173,0.867,0.48
168875,1755604214729,10.45,61.47,-28.06,839,912,881,393,915,33.333333333333336,-0.173,0.869,0.479
168905,1755604214759,10.9,61.45,-28.08,837,909,882,309,914,33.333333333333336,-0.173,0.867,0.48
168934,1755604214788,10.92,61.45,-28.08,837,911,891,317,918,34.48275862068966,-0.173,0.866,0.48
168964,1755604214818,10.9,61.46,-28.07,836,904,896,386,915,33.333333333333336,-0.173,0.866,0.479
168993,1755604214847,10.86,61.48,-28.09,842,906,885,402,912,34.48275862068966,-0.172,0.88,0.478
169023,1755604214877,10.89,61.58,-28.06,838,909,887,352,914,33.333333333333336,-0.177,0.872,0.476
169052,1755604214906,10.95,61.54,-28.09,836,913,879,339,913,34.48275862068966,-0.17,0.864,0.483
169082,1755604214936,10.93,61.51,-28.14,844,909,884,377,915,33.333333333333336,-0.17,0.867,0.481
169111,1755604214965,10.9,61.57,-28.14,838,908,887,394,905,34.48275862068966,-0.173,0.866,0.483
169141,1755604214995,10.94,61.6,-28.12,832,916,878,379,914,33.333333333333336,-0.174,0.867,0.482
169171,1755604215025,10.92,61.58,-28.13,843,917,876,340,913,33.333333333333336,-0.17,0.863,0.476
169200,1755604215054,10.9,61.49,-28.18,836,922,885,363,919,34.48275862068966,-0.171,0.863,0.479
169230,1755604215084,10.9,61.53,-28.18,840,906,878,421,912,33.333333333333336,-0.177,0.864,0.481
169260,1755604215114,10.88,61.53,-28.17,840,916,887,408,918,33.333333333333336,-0.172,0.863,0.473
169289,1755604215143,10.81,61.49,-28.22,836,913,891,370,912,34.48275862068966,-0.173,0.861,0.478
169319,1755604215173,10.82,61.53,-28.21,840,908,888,353,934,33.333333333333336,-0.177,0.866,0.478
169348,1755604215203,10.74,61.55,-28.2,832,912,884,387,926,34.48275862068966,-0.172,0.88,0.475
169368,1755604215222,10.79,61.44,-28.24,844,918,889,358,902,50.0,-0.171,0.855,0.485
169397,1755604215252,10.72,61.31,-28.22,839,907,892,411,912,34.48275862068966,-0.168,0.861,0.484
169427,1755604215281,10.63,61.33,-28.24,838,917,892,420,918,33.333333333333336,-0.169,0.871,0.477
169457,1755604215311,10.65,61.33,-28.24,845,912,876,370,911,33.333333333333336,-0.171,0.867,0.479
169487,1755604215341,10.67,61.29,-28.26,838,908,890,348,914,33.333333333333336,-0.169,0.865,0.482
169516,1755604215371,10.69,61.27,-28.29,837,900,885,352,914,34.48275862068966,-0.171,0.867,0.481
169546,1755604215400,10.62,61.27,-28.32,839,912,876,403,919,33.333333333333336,-0.169,0.87,0.478
169575,1755604215429,10.63,61.3,-28.35,838,905,883,401,908,34.48275862068966,-0.171,0.868,0.481
169605,1755604215459,10.67,61.28,-28.35,845,908,893,341,921,33.333333333333336,-0.174,0.867,0.485
169634,1755604215488,10.65,61.29,-28.36,844,916,887,350,918,34.48275862068966,-0.172,0.869,0.48
169663,1755604215518,10.68,61.26,-28.4,837,905,887,408,917,34.48275862068966,-0.171,0.864,0.481
169693,1755604215547,10.67,61.25,-28.42,843,919,881,400,923,33.333333333333336,-0.172,0.867,0.482
169723,1755604215577,10.66,61.25,-28.44,833,908,889,354,930,33.333333333333336,-0.175,0.867,0.482
169752,1755604215607,10.69,61.25,-28.46,837,911,884,339,911,34.48275862068966,-0.174,0.866,0.482
169782,1755604215636,10.65,61.2,-28.48,841,909,880,377,916,33.333333333333336,-0.17,0.867,0.479
169811,1755604215666,10.66,61.19,-28.52,838,909,885,397,918,34.48275862068966,-0.175,0.867,0.481
169841,1755604215695,10.66,61.19,-28.52,835,914,882,382,915,33.333333333333336,-0.176,0.864,0.484
169871,1755604215725,10.67,61.19,-28.52,838,914,886,330,921,33.333333333333336,-0.175,0.863,0.483
169900,1755604215754,10.67,61.21,-28.54,834,915,899,351,912,34.48275862068966,-0.173,0.866,0.485
169930,1755604215784,10.63,61.21,-28.55,839,907,887,405,912,33.333333333333336,-0.173,0.867,0.482
169959,1755604215813,10.65,61.21,-28.56,837,914,885,406,920,34.48275862068966,-0.174,0.866,0.482
169989,1755604215843,10.68,61.16,-28.6,840,922,889,355,917,33.333333333333336,-0.174,0.865,0.483
170018,1755604215872,10.69,61.15,-28.6,845,914,886,354,915,34.48275862068966,-0.176,0.866,0.481
170048,1755604215902,10.69,61.2,-28.61,841,911,893,385,917,33.333333333333336,-0.175,0.866,0.483
170077,1755604215931,10.71,61.17,-28.65,839,906,878,405,906,34.48275862068966,-0.174,0.865,0.483
170106,1755604215961,10.73,61.19,-28.67,840,914,879,364,908,34.48275862068966,-0.174,0.865,0.482
170136,1755604215990,10.77,61.12,-28.72,834,914,886,345,915,33.333333333333336,-0.174,0.864,0.483
170165,1755604216019,10.78,61.13,-28.73,844,921,887,382,905,34.48275862068966,-0.177,0.863,0.485
170195,1755604216049,10.81,61.13,-28.74,843,919,887,404,919,33.333333333333336,-0.177,0.865,0.484
170224,1755604216078,10.84,61.12,-28.77,844,906,882,381,916,34.48275862068966,-0.177,0.864,0.484
170254,1755604216108,10.83,61.13,-28.76,833,924,889,343,916,33.333333333333336,-0.177,0.864,0.484
170283,1755604216138,10.79,61.12,-28.74,835,919,886,323,911,34.48275862068966,-0.177,0.864,0.482
170313,1755604216167,10.79,61.06,-28.76,838,905,883,384,911,33.333333333333336,-0.179,0.864,0.483
170343,1755604216197,10.78,61.07,-28.73,834,916,880,390,915,33.333333333333336,-0.18,0.864,0.486
170372,1755604216227,10.75,61.07,-28.71,833,907,875,352,910,34.48275862068966,-0.177,0.864,0.484
170402,1755604216256,10.66,61.09,-28.7,840,913,892,339,913,33.333333333333336,-0.174,0.871,0.479
170431,1755604216285,10.76,61.01,-28.74,842,912,891,383,912,34.48275862068966,-0.18,0.853,0.488
170461,1755604216315,10.76,60.95,-28.68,836,915,880,392,916,33.333333333333336,-0.174,0.848,0.492
170490,1755604216344,10.7,60.96,-28.72,840,910,883,379,915,34.48275862068966,-0.171,0.856,0.487
170520,1755604216374,10.66,60.97,-28.71,840,909,880,343,915,33.333333333333336,-0.176,0.855,0.485
170549,1755604216403,10.68,60.93,-28.74,837,916,890,378,903,34.48275862068966,-0.174,0.855,0.49
170578,1755604216433,10.74,60.98,-28.74,842,900,885,404,915,34.48275862068966,-0.176,0.854,0.494
170608,1755604216462,10.7,61.04,-28.73,843,919,877,394,915,33.333333333333336,-0.173,0.859,0.489
170638,1755604216492,10.7,61.08,-28.74,838,915,881,332,924,33.333333333333336,-0.174,0.859,0.486
170667,1755604216521,10.75,61.05,-28.73,840,902,874,299,913,34.48275862068966,-0.177,0.859,0.487
170697,1755604216551,10.72,61.05,-28.71,843,915,887,388,913,33.333333333333336,-0.173,0.861,0.485
