timestamp_ms,recv_timestamp_ms,pitch,roll,yaw,flex1,flex2,flex3,flex4,flex5,sampling_hz,accel_x,accel_y,accel_z
135605,1755604182325,8.19,67.88,-15.1,800,842,804,400,858,34.48275862068966,-0.133,0.92,0.384
135635,1755604182328,8.19,67.9,-15.15,805,843,810,350,843,33.333333333333336,-0.135,0.92,0.384
135655,1755604182330,8.19,67.91,-15.18,799,841,804,411,846,50.0,-0.135,0.921,0.381
135684,1755604182331,8.18,67.9,-15.22,804,845,808,354,841,34.48275862068966,-0.136,0.919,0.378
135714,1755604182334,8.14,67.85,-15.22,798,844,814,360,855,33.333333333333336,-0.138,0.918,0.381
135743,1755604182336,8.14,67.84,-15.23,797,842,807,408,847,34.48275862068966,-0.139,0.919,0.386
135773,1755604182338,8.17,67.88,-15.24,798,842,808,401,839,33.333333333333336,-0.139,0.919,0.385
135802,1755604182339,8.17,67.87,-15.25,801,840,811,356,842,34.48275862068966,-0.139,0.918,0.382
135832,1755604182341,8.17,67.84,-15.27,796,840,806,349,852,33.333333333333336,-0.139,0.919,0.384
135861,1755604182343,8.17,67.87,-15.26,796,841,808,382,842,34.48275862068966,-0.139,0.919,0.388
135920,1755604182347,8.18,67.89,-15.26,803,833,817,390,842,34.48275862068966,-0.139,0.918,0.385
135950,1755604182349,8.19,67.87,-15.25,804,836,808,334,846,33.333333333333336,-0.14,0.918,0.387
135980,1755604182352,8.22,67.93,-15.21,801,830,806,346,846,33.333333333333336,-0.141,0.919,0.388
136000,1755604182353,8.24,67.96,-15.18,798,845,812,352,846,50.0,-0.139,0.92,0.386
136029,1755604182355,8.27,67.96,-15.18,804,846,809,342,847,34.48275862068966,-0.137,0.919,0.384
136059,1755604182357,8.28,67.92,-15.17,810,839,813,413,847,33.333333333333336,-0.134,0.918,0.383
136088,1755604182359,8.27,67.93,-15.18,804,843,803,393,844,34.48275862068966,-0.134,0.92,0.382
136118,1755604182361,8.27,67.94,-15.24,795,841,814,367,846,33.333333333333336,-0.135,0.919,0.382
136148,1755604182363,8.27,67.92,-15.23,805,838,808,354,847,33.333333333333336,-0.137,0.918,0.382
136177,1755604182366,8.25,67.89,-15.22,798,840,811,402,852,34.48275862068966,-0.137,0.919,0.382
136207,1755604182368,8.26,67.93,-15.26,802,843,811,392,845,33.333333333333336,-0.136,0.921,0.386
136236,1755604182370,8.27,67.97,-15.26,801,844,812,377,850,34.48275862068966,-0.136,0.92,0.385
136265,1755604182372,8.28,67.95,-15.28,802,845,811,350,843,34.48275862068966,-0.134,0.918,0.382
136295,1755604182374,8.29,67.93,-15.3,800,840,820,391,843,33.333333333333336,-0.135,0.919,0.383
136325,1755604182376,8.27,67.95,-15.3,803,839,812,417,836,33.333333333333336,-0.136,0.922,0.383
136354,1755604182378,8.29,67.95,-15.33,801,838,804,402,840,34.48275862068966,-0.136,0.919,0.382
136384,1755604182380,8.31,67.94,-15.36,798,840,812,339,840,33.333333333333336,-0.137,0.918,0.381
136413,1755604182383,8.31,67.92,-15.36,800,844,807,352,843,34.48275862068966,-0.138,0.919,0.382
136442,1755604182385,8.33,67.92,-15.39,802,840,806,412,846,34.48275862068966,-0.138,0.919,0.381
136472,1755604182387,8.32,67.91,-15.39,802,836,813,401,845,33.333333333333336,-0.138,0.916,0.384
136501,1755604182389,8.35,67.89,-15.4,801,846,809,340,863,34.48275862068966,-0.137,0.917,0.385
136531,1755604182391,8.35,67.91,-15.4,804,837,814,346,848,33.333333333333336,-0.135,0.915,0.386
136560,1755604182414,8.36,67.89,-15.38,805,839,812,407,846,34.48275862068966,-0.135,0.908,0.384
136580,1755604182434,8.35,67.9,-15.39,797,844,801,347,848,50.0,-0.135,0.908,0.381
136610,1755604182464,8.37,67.86,-15.42,801,847,811,401,845,33.333333333333336,-0.137,0.911,0.381
136639,1755604182493,8.36,67.86,-15.4,803,845,810,403,845,34.48275862068966,-0.137,0.913,0.383
136668,1755604182522,8.38,67.83,-15.42,801,837,806,360,840,34.48275862068966,-0.136,0.913,0.384
136698,1755604182552,8.41,67.83,-15.44,799,840,808,348,839,33.333333333333336,-0.136,0.915,0.384
136728,1755604182581,8.42,67.85,-15.44,805,837,804,375,840,33.333333333333336,-0.137,0.917,0.386
136757,1755604182611,8.45,67.87,-15.46,802,833,811,413,848,34.48275862068966,-0.137,0.916,0.386
136787,1755604182640,8.46,67.87,-15.47,797,841,819,392,843,33.333333333333336,-0.136,0.917,0.382
136816,1755604182670,8.44,67.84,-15.48,806,845,803,353,845,34.48275862068966,-0.136,0.917,0.38
136846,1755604182699,8.43,67.86,-15.49,799,835,809,368,842,33.333333333333336,-0.137,0.919,0.385
136875,1755604182729,8.45,67.89,-15.53,803,843,808,402,843,34.48275862068966,-0.139,0.918,0.385
136905,1755604182758,8.47,67.92,-15.51,800,840,811,387,854,33.333333333333336,-0.14,0.918,0.385
136934,1755604182788,8.48,67.94,-15.49,800,841,805,341,847,34.48275862068966,-0.139,0.918,0.383
136963,1755604182817,8.49,67.93,-15.5,796,841,804,347,845,34.48275862068966,-0.138,0.918,0.379
136993,1755604182847,8.48,67.93,-15.5,804,847,810,387,849,33.333333333333336,-0.138,0.92,0.38
137023,1755604182877,8.49,67.93,-15.52,809,848,805,393,840,33.333333333333336,-0.139,0.919,0.381
137053,1755604182906,8.51,67.95,-15.52,806,844,812,368,843,33.333333333333336,-0.138,0.919,0.38
137082,1755604182936,8.49,67.93,-15.51,801,838,803,334,845,34.48275862068966,-0.137,0.919,0.38
137112,1755604182965,8.51,67.91,-15.55,803,845,809,352,851,33.333333333333336,-0.138,0.921,0.382
137141,1755604182995,8.5,67.95,-15.55,803,848,812,397,851,34.48275862068966,-0.139,0.92,0.383
137170,1755604183024,8.49,67.97,-15.55,800,846,809,397,846,34.48275862068966,-0.139,0.92,0.38
137200,1755604183053,8.51,67.95,-15.56,804,839,813,342,845,33.333333333333336,-0.14,0.919,0.379
137259,1755604183112,8.49,67.9,-15.57,804,841,816,424,840,33.333333333333336,-0.137,0.92,0.381
137288,1755604183142,8.48,67.94,-15.58,804,841,810,450,848,34.48275862068966,-0.138,0.921,0.382
137318,1755604183171,8.48,67.95,-15.59,806,849,805,369,846,33.333333333333336,-0.138,0.921,0.383
137347,1755604183201,8.51,67.98,-15.6,799,835,806,363,850,34.48275862068966,-0.139,0.921,0.382
137406,1755604183260,8.53,68.01,-15.57,803,837,811,403,847,34.48275862068966,-0.138,0.919,0.379
137435,1755604183289,8.54,67.98,-15.57,801,842,814,365,844,34.48275862068966,-0.136,0.92,0.379
137465,1755604183319,8.55,67.98,-15.61,800,833,808,334,848,33.333333333333336,-0.135,0.921,0.381
137495,1755604183348,8.55,67.99,-15.61,806,832,810,371,844,33.333333333333336,-0.136,0.92,0.378
137524,1755604183378,8.54,67.98,-15.64,799,840,811,399,846,34.48275862068966,-0.138,0.921,0.379
137554,1755604183407,8.56,67.98,-15.65,805,844,814,390,843,33.333333333333336,-0.14,0.92,0.381
137583,1755604183437,8.54,68.0,-15.62,805,848,813,341,850,34.48275862068966,-0.139,0.92,0.378
137613,1755604183466,8.54,68.01,-15.66,802,843,807,354,844,33.333333333333336,-0.139,0.92,0.379
137642,1755604183496,8.55,68.02,-15.67,803,842,813,404,849,34.48275862068966,-0.139,0.92,0.38
137672,1755604183525,8.53,67.99,-15.66,797,834,811,394,844,33.333333333333336,-0.139,0.919,0.377
137701,1755604183555,8.52,67.95,-15.68,800,839,810,352,856,34.48275862068966,-0.138,0.92,0.378
137731,1755604183585,8.51,67.97,-15.69,796,849,809,304,845,33.333333333333336,-0.138,0.921,0.381
137761,1755604183614,8.51,67.95,-15.7,800,837,808,405,844,33.333333333333336,-0.137,0.92,0.38
137790,1755604183643,8.5,67.94,-15.72,802,844,806,412,849,34.48275862068966,-0.136,0.921,0.38
137819,1755604183673,8.5,67.97,-15.76,802,842,812,374,846,34.48275862068966,-0.138,0.922,0.383
137878,1755604183732,8.51,68.04,-15.79,810,835,816,358,847,34.48275862068966,-0.139,0.922,0.38
137908,1755604183761,8.53,68.03,-15.81,804,839,815,410,844,33.333333333333336,-0.138,0.92,0.382
137937,1755604183791,8.52,68.07,-15.84,805,838,821,404,843,34.48275862068966,-0.136,0.921,0.382
137967,1755604183820,8.53,68.1,-15.9,797,855,812,360,849,33.333333333333336,-0.137,0.921,0.381
137996,1755604183850,8.54,68.11,-15.96,797,848,813,357,848,34.48275862068966,-0.137,0.92,0.377
138026,1755604183879,8.53,68.07,-15.98,795,840,811,393,845,33.333333333333336,-0.139,0.919,0.379
138085,1755604183938,8.57,68.12,-16.0,805,840,814,358,843,33.333333333333336,-0.14,0.919,0.382
138114,1755604183967,8.58,68.11,-16.01,793,843,813,336,848,34.48275862068966,-0.139,0.917,0.377
138143,1755604183997,8.55,68.08,-16.02,798,845,811,378,846,34.48275862068966,-0.138,0.92,0.374
138173,1755604184026,8.54,68.08,-16.04,803,846,808,415,842,33.333333333333336,-0.14,0.92,0.375
138202,1755604184056,8.54,68.06,-16.06,799,847,806,371,849,34.48275862068966,-0.142,0.919,0.376
138231,1755604184085,8.54,68.03,-16.09,794,845,808,359,842,34.48275862068966,-0.142,0.92,0.377
138261,1755604184114,8.51,67.99,-16.08,801,843,806,386,848,33.333333333333336,-0.14,0.919,0.379
138290,1755604184144,8.49,67.95,-16.08,802,844,812,409,842,34.48275862068966,-0.138,0.919,0.381
138320,1755604184173,8.49,67.95,-16.13,808,836,802,378,848,33.333333333333336,-0.138,0.92,0.382
138349,1755604184203,8.49,67.95,-16.18,803,842,809,344,850,34.48275862068966,-0.141,0.92,0.382
138379,1755604184232,8.49,67.96,-16.19,800,842,811,367,841,33.333333333333336,-0.145,0.92,0.382
138408,1755604184262,8.5,67.94,-16.22,803,844,806,403,841,34.48275862068966,-0.145,0.92,0.382
138438,1755604184291,8.51,67.94,-16.23,803,838,803,400,847,33.333333333333336,-0.144,0.92,0.381
138467,1755604184321,8.5,67.96,-16.23,805,841,811,332,851,34.48275862068966,-0.144,0.921,0.381
138497,1755604184350,8.51,67.97,-16.27,796,842,805,336,840,33.333333333333336,-0.143,0.92,0.38
138526,1755604184380,8.53,67.95,-16.29,803,834,814,344,848,34.48275862068966,-0.144,0.92,0.382
138556,1755604184410,8.53,67.96,-16.3,802,847,813,378,842,33.333333333333336,-0.144,0.92,0.383
138585,1755604184439,8.54,67.98,-16.33,800,839,806,340,839,34.48275862068966,-0.143,0.919,0.381
138615,1755604184469,8.53,67.98,-16.34,806,834,804,338,845,33.333333333333336,-0.144,0.92,0.382
138644,1755604184498,8.54,68.01,-16.33,800,842,802,365,841,34.48275862068966,-0.146,0.919,0.385
138674,1755604184528,8.58,68.05,-16.32,797,841,811,409,845,33.333333333333336,-0.146,0.919,0.382
138703,1755604184557,8.59,68.06,-16.32,799,843,811,405,849,34.48275862068966,-0.145,0.918,0.379
138733,1755604184586,8.59,68.03,-16.31,803,843,807,354,846,33.333333333333336,-0.143,0.918,0.38
138762,1755604184616,8.61,68.03,-16.32,803,839,811,346,845,34.48275862068966,-0.143,0.92,0.382
138792,1755604184645,8.62,68.04,-16.33,798,833,809,399,846,33.333333333333336,-0.144,0.919,0.382
138821,1755604184675,8.64,68.07,-16.32,799,845,808,392,842,34.48275862068966,-0.146,0.919,0.381
138880,1755604184734,8.67,68.08,-16.3,800,847,809,334,846,34.48275862068966,-0.143,0.921,0.379
138910,1755604184763,8.67,68.08,-16.31,803,837,801,377,845,33.333333333333336,-0.142,0.92,0.379
138939,1755604184793,8.66,68.07,-16.3,805,848,811,400,849,34.48275862068966,-0.141,0.919,0.379
138969,1755604184823,8.67,68.08,-16.32,800,842,801,376,844,33.333333333333336,-0.141,0.922,0.381
138998,1755604184852,8.69,68.09,-16.35,801,841,809,339,844,34.48275862068966,-0.139,0.92,0.381
139028,1755604184882,8.71,68.06,-16.42,795,839,810,382,848,33.333333333333336,-0.138,0.918,0.381
139057,1755604184911,8.72,68.05,-16.5,811,840,811,396,859,34.48275862068966,-0.14,0.919,0.379
139087,1755604184941,8.71,68.03,-16.57,803,842,810,378,843,33.333333333333336,-0.143,0.92,0.378
139116,1755604184970,8.71,68.05,-16.63,805,846,812,332,844,34.48275862068966,-0.146,0.919,0.378
139146,1755604184999,8.73,68.03,-16.69,805,851,813,351,849,33.333333333333336,-0.148,0.918,0.377
139175,1755604185029,8.73,68.03,-16.69,803,841,808,417,846,34.48275862068966,-0.15,0.918,0.378
139205,1755604185058,8.73,68.03,-16.68,797,836,815,406,846,33.333333333333336,-0.149,0.918,0.379
139234,1755604185088,8.73,68.05,-16.68,798,833,809,347,847,34.48275862068966,-0.147,0.919,0.379
139264,1755604185117,8.72,68.08,-16.72,800,849,812,340,848,33.333333333333336,-0.145,0.919,0.378
139293,1755604185147,8.72,68.08,-16.75,802,849,806,384,845,34.48275862068966,-0.148,0.917,0.378
139323,1755604185177,8.72,68.06,-16.73,801,847,813,396,847,33.333333333333336,-0.15,0.917,0.378
139352,1755604185206,8.73,68.04,-16.73,803,840,805,371,845,34.48275862068966,-0.149,0.918,0.377
139382,1755604185235,8.75,68.03,-16.77,804,841,805,329,845,33.333333333333336,-0.147,0.919,0.38
139411,1755604185265,8.78,68.02,-16.8,805,848,806,353,848,34.48275862068966,-0.146,0.919,0.381
139441,1755604185295,8.81,68.01,-16.87,801,835,810,398,859,33.333333333333336,-0.144,0.919,0.378
139461,1755604185314,8.84,67.98,-16.94,798,841,820,365,845,50.0,-0.145,0.918,0.376
139490,1755604185344,8.88,67.99,-17.03,803,844,810,384,847,34.48275862068966,-0.151,0.921,0.377
139519,1755604185373,9.01,68.01,-16.97,801,836,808,327,843,34.48275862068966,-0.156,0.919,0.378
139578,1755604185432,9.18,67.89,-16.86,804,843,810,352,847,34.48275862068966,-0.156,0.917,0.381
139608,1755604185461,9.17,67.92,-16.83,803,842,814,402,837,33.333333333333336,-0.15,0.919,0.383
139637,1755604185491,9.17,67.96,-16.84,802,845,817,401,847,34.48275862068966,-0.149,0.919,0.382
139667,1755604185520,9.14,67.96,-16.88,800,846,814,340,849,33.333333333333336,-0.151,0.917,0.379
139696,1755604185550,9.13,67.91,-16.89,808,835,814,357,850,34.48275862068966,-0.153,0.917,0.38
139726,1755604185580,9.15,67.96,-16.84,805,840,811,409,847,33.333333333333336,-0.153,0.918,0.384
139756,1755604185610,9.18,67.97,-16.86,797,839,813,399,843,33.333333333333336,-0.15,0.918,0.381
139785,1755604185639,9.22,67.97,-16.88,804,838,806,369,844,34.48275862068966,-0.151,0.918,0.38
139815,1755604185669,9.2,67.98,-16.81,803,840,812,339,853,33.333333333333336,-0.152,0.916,0.381
139844,1755604185698,9.22,67.96,-16.79,801,838,809,326,852,34.48275862068966,-0.151,0.917,0.38
139874,1755604185728,9.24,67.99,-16.83,802,837,812,377,853,33.333333333333336,-0.15,0.919,0.378
139904,1755604185758,9.23,68.04,-16.78,804,843,805,390,847,33.333333333333336,-0.15,0.918,0.38
139933,1755604185787,9.25,68.0,-16.78,808,841,807,321,846,34.48275862068966,-0.149,0.916,0.379
139963,1755604185817,9.23,68.02,-16.78,801,843,807,346,839,33.333333333333336,-0.149,0.919,0.379
139992,1755604185846,9.21,67.99,-16.78,801,843,807,403,846,34.48275862068966,-0.149,0.919,0.379
140022,1755604185875,9.21,68.02,-16.76,808,842,810,412,847,33.333333333333336,-0.149,0.919,0.379
140051,1755604185905,9.21,68.01,-16.79,800,847,799,365,842,34.48275862068966,-0.149,0.918,0.38
140081,1755604185935,9.22,68.04,-16.76,804,850,806,332,844,33.333333333333336,-0.149,0.919,0.38
140110,1755604185964,9.2,68.05,-16.74,798,836,809,382,848,34.48275862068966,-0.148,0.918,0.38
140140,1755604185994,9.2,68.02,-16.77,804,842,818,404,844,33.333333333333336,-0.146,0.919,0.377
140169,1755604186023,9.18,68.06,-16.76,795,835,812,372,843,34.48275862068966,-0.146,0.92,0.378
140199,1755604186053,9.17,68.04,-16.77,804,842,811,336,845,33.333333333333336,-0.146,0.919,0.379
140258,1755604186111,9.17,68.02,-16.79,804,838,813,398,845,33.333333333333336,-0.146,0.918,0.378
140287,1755604186141,9.15,68.06,-16.77,799,852,806,402,845,34.48275862068966,-0.146,0.921,0.378
140317,1755604186171,9.15,68.03,-16.8,803,836,801,342,844,33.333333333333336,-0.146,0.921,0.376
140346,1755604186200,9.13,68.0,-16.82,799,848,803,342,848,34.48275862068966,-0.146,0.92,0.377
140376,1755604186230,9.12,68.02,-16.82,801,837,814,393,838,33.333333333333336,-0.147,0.921,0.381
140405,1755604186259,9.14,68.01,-16.84,805,839,803,403,846,34.48275862068966,-0.147,0.919,0.38
140435,1755604186288,9.13,68.03,-16.85,801,835,813,369,843,33.333333333333336,-0.146,0.919,0.377
140464,1755604186318,9.13,67.98,-16.87,802,834,808,344,847,34.48275862068966,-0.147,0.919,0.379
140494,1755604186347,9.12,67.96,-16.88,802,840,810,392,851,33.333333333333336,-0.146,0.919,0.381
140523,1755604186377,9.12,67.98,-16.9,801,843,809,416,848,34.48275862068966,-0.146,0.92,0.378
140552,1755604186406,9.08,67.94,-16.92,804,839,807,378,846,34.48275862068966,-0.145,0.919,0.375
140582,1755604186436,9.06,67.87,-16.95,801,843,814,356,849,33.333333333333336,-0.145,0.919,0.378
140602,1755604186455,9.04,67.86,-16.95,800,846,808,409,848,50.0,-0.147,0.92,0.381
140631,1755604186485,9.05,67.85,-16.96,804,843,811,348,846,34.48275862068966,-0.148,0.92,0.382
140661,1755604186514,9.04,67.84,-16.96,801,843,804,344,853,33.333333333333336,-0.147,0.919,0.382
140690,1755604186544,9.04,67.82,-16.96,796,845,815,390,838,34.48275862068966,-0.147,0.919,0.383
140720,1755604186573,9.02,67.82,-16.95,801,843,806,375,848,33.333333333333336,-0.146,0.919,0.384
140749,1755604186603,9.02,67.82,-16.99,799,843,808,337,847,34.48275862068966,-0.145,0.919,0.385
140779,1755604186632,9.02,67.82,-16.99,802,848,813,344,845,33.333333333333336,-0.146,0.918,0.386
140808,1755604186662,9.02,67.82,-17.01,801,847,809,399,836,34.48275862068966,-0.146,0.918,0.383
140838,1755604186692,9.03,67.81,-17.03,803,845,817,412,848,33.333333333333336,-0.147,0.917,0.384
140868,1755604186721,9.01,67.82,-17.0,800,842,805,362,842,33.333333333333336,-0.147,0.918,0.383
140897,1755604186751,9.0,67.81,-17.01,802,847,808,344,837,34.48275862068966,-0.146,0.918,0.383
140927,1755604186781,9.02,67.79,-17.04,805,840,811,376,847,33.333333333333336,-0.146,0.917,0.385
140956,1755604186810,9.03,67.8,-17.04,801,840,814,403,846,34.48275862068966,-0.146,0.917,0.383
140986,1755604186840,9.02,67.77,-17.07,800,842,805,378,851,33.333333333333336,-0.145,0.917,0.381
141015,1755604186869,9.01,67.74,-17.06,798,836,812,332,850,34.48275862068966,-0.146,0.918,0.382
141045,1755604186898,9.0,67.76,-17.06,803,839,806,349,849,33.333333333333336,-0.145,0.917,0.385
141074,1755604186928,9.01,67.76,-17.1,802,849,806,400,840,34.48275862068966,-0.145,0.918,0.383
141104,1755604186958,9.0,67.73,-17.1,802,839,806,383,847,33.333333333333336,-0.148,0.917,0.384
141133,1755604186987,8.98,67.74,-17.06,803,844,812,344,845,34.48275862068966,-0.147,0.918,0.386
141163,1755604187017,8.99,67.78,-17.09,801,845,810,341,839,33.333333333333336,-0.146,0.92,0.385
141192,1755604187046,8.98,67.79,-17.1,802,837,804,400,846,34.48275862068966,-0.145,0.919,0.382
141222,1755604187076,8.95,67.75,-17.1,799,843,808,419,840,33.333333333333336,-0.146,0.918,0.383
141251,1755604187105,8.95,67.74,-17.11,806,833,803,370,848,34.48275862068966,-0.147,0.918,0.385
141281,1755604187135,8.96,67.76,-17.11,804,841,809,350,846,33.333333333333336,-0.147,0.918,0.385
141311,1755604187164,8.98,67.78,-17.11,802,841,820,389,842,33.333333333333336,-0.145,0.917,0.386
141340,1755604187194,8.98,67.79,-17.1,801,836,811,416,838,34.48275862068966,-0.144,0.919,0.383
141369,1755604187223,8.96,67.76,-17.11,799,849,811,395,849,34.48275862068966,-0.144,0.918,0.383
141399,1755604187252,8.96,67.76,-17.11,797,837,808,359,853,33.333333333333336,-0.145,0.919,0.385
141428,1755604187282,8.95,67.78,-17.1,801,841,820,373,851,34.48275862068966,-0.145,0.919,0.384
141458,1755604187312,8.96,67.76,-17.11,797,840,810,418,848,33.333333333333336,-0.145,0.918,0.383
141487,1755604187342,8.94,67.74,-17.1,798,835,809,407,845,34.48275862068966,-0.144,0.917,0.384
141517,1755604187371,8.94,67.76,-17.12,801,846,813,347,844,33.333333333333336,-0.144,0.919,0.384
141547,1755604187401,8.94,67.77,-17.13,799,834,803,335,848,33.333333333333336,-0.144,0.919,0.383
141577,1755604187430,8.92,67.73,-17.13,796,841,811,374,852,33.333333333333336,-0.144,0.918,0.382
141606,1755604187460,8.89,67.73,-17.12,807,844,810,397,846,34.48275862068966,-0.144,0.918,0.384
141636,1755604187490,8.87,67.78,-17.1,805,841,808,375,841,33.333333333333336,-0.144,0.918,0.387
141665,1755604187519,8.88,67.84,-17.1,802,846,810,330,844,34.48275862068966,-0.143,0.919,0.385
141695,1755604187549,8.86,67.86,-17.12,800,839,806,359,845,33.333333333333336,-0.142,0.917,0.38
141724,1755604187578,8.83,67.8,-17.12,801,849,816,409,847,34.48275862068966,-0.142,0.917,0.38
141754,1755604187608,8.82,67.79,-17.13,795,838,806,409,845,33.333333333333336,-0.142,0.918,0.384
141783,1755604187637,8.83,67.83,-17.15,799,835,811,356,843,34.48275862068966,-0.142,0.92,0.383
141813,1755604187666,8.84,67.81,-17.17,797,836,808,361,842,33.333333333333336,-0.141,0.917,0.381
141842,1755604187696,8.8,67.76,-17.16,803,847,813,413,841,34.48275862068966,-0.14,0.918,0.382
141872,1755604187725,8.79,67.73,-17.21,800,847,809,408,845,33.333333333333336,-0.141,0.919,0.385
141901,1755604187755,8.81,67.75,-17.23,800,841,817,357,845,34.48275862068966,-0.143,0.917,0.386
141930,1755604187784,8.79,67.74,-17.2,796,847,808,346,844,34.48275862068966,-0.143,0.918,0.383
141960,1755604187814,8.77,67.72,-17.23,803,841,809,379,850,33.333333333333336,-0.142,0.917,0.385
142048,1755604187902,8.75,67.72,-17.27,804,842,809,342,837,34.48275862068966,-0.14,0.918,0.383
142078,1755604187932,8.73,67.69,-17.28,805,844,817,368,844,33.333333333333336,-0.141,0.916,0.385
142107,1755604187961,8.71,67.69,-17.27,797,849,803,411,845,34.48275862068966,-0.142,0.917,0.386
142137,1755604187991,8.73,67.69,-17.31,803,851,812,400,847,33.333333333333336,-0.143,0.917,0.385
142166,1755604188020,8.74,67.7,-17.3,796,838,813,357,847,34.48275862068966,-0.144,0.917,0.387
142196,1755604188050,8.73,67.71,-17.27,802,843,808,367,848,33.333333333333336,-0.141,0.917,0.388
142225,1755604188079,8.74,67.71,-17.3,797,842,813,392,843,34.48275862068966,-0.14,0.917,0.387
142255,1755604188109,8.73,67.72,-17.3,798,841,810,384,852,33.333333333333336,-0.141,0.916,0.386
142284,1755604188138,8.73,67.74,-17.28,799,841,806,349,847,34.48275862068966,-0.142,0.917,0.385
142314,1755604188168,8.76,67.72,-17.31,807,836,810,349,854,33.333333333333336,-0.142,0.916,0.384
142373,1755604188226,8.76,67.73,-17.3,798,835,807,405,845,33.333333333333336,-0.141,0.918,0.387
142402,1755604188256,8.79,67.76,-17.34,800,845,809,386,839,34.48275862068966,-0.14,0.918,0.386
142432,1755604188285,8.77,67.74,-17.31,803,839,810,352,854,33.333333333333336,-0.14,0.916,0.384
142461,1755604188315,8.77,67.73,-17.32,799,845,812,355,846,34.48275862068966,-0.14,0.917,0.385
142491,1755604188345,8.8,67.75,-17.35,802,842,815,408,841,33.333333333333336,-0.141,0.918,0.387
142520,1755604188374,8.78,67.8,-17.33,801,842,816,391,839,34.48275862068966,-0.141,0.918,0.384
142550,1755604188403,8.78,67.76,-17.35,805,842,803,338,840,33.333333333333336,-0.14,0.917,0.381
142579,1755604188433,8.77,67.7,-17.37,805,834,815,341,853,34.48275862068966,-0.14,0.917,0.383
142609,1755604188462,8.75,67.7,-17.37,805,849,810,356,854,33.333333333333336,-0.14,0.918,0.385
142638,1755604188492,8.75,67.71,-17.41,801,841,810,383,845,34.48275862068966,-0.14,0.918,0.384
142667,1755604188521,8.74,67.7,-17.43,793,837,819,351,851,34.48275862068966,-0.141,0.918,0.383
142697,1755604188551,8.74,67.67,-17.43,806,848,815,354,846,33.333333333333336,-0.141,0.917,0.384
142726,1755604188580,8.73,67.67,-17.45,808,847,809,377,847,34.48275862068966,-0.14,0.918,0.385
142756,1755604188610,8.72,67.71,-17.46,801,844,807,402,845,33.333333333333336,-0.14,0.919,0.386
142785,1755604188639,8.73,67.69,-17.49,802,834,802,387,847,34.48275862068966,-0.139,0.917,0.383
142815,1755604188669,8.72,67.62,-17.52,799,843,811,350,857,33.333333333333336,-0.14,0.916,0.385
142845,1755604188698,8.7,67.61,-17.52,802,845,803,360,845,33.333333333333336,-0.141,0.917,0.39
142874,1755604188728,8.7,67.64,-17.53,805,840,808,419,847,34.48275862068966,-0.143,0.918,0.389
142904,1755604188757,8.72,67.61,-17.54,803,847,810,405,847,33.333333333333336,-0.142,0.916,0.386
142933,1755604188787,8.7,67.6,-17.53,801,843,818,343,854,34.48275862068966,-0.14,0.916,0.385
142963,1755604188816,8.69,67.61,-17.55,797,835,812,364,845,33.333333333333336,-0.141,0.917,0.386
142992,1755604188846,8.7,67.58,-17.58,804,840,799,394,841,34.48275862068966,-0.143,0.916,0.387
143021,1755604188875,8.7,67.58,-17.55,806,830,808,402,849,34.48275862068966,-0.143,0.916,0.389
143051,1755604188904,8.71,67.59,-17.55,801,835,811,360,851,33.333333333333336,-0.141,0.917,0.389
143080,1755604188935,8.72,67.61,-17.58,803,845,808,336,850,34.48275862068966,-0.14,0.917,0.387
143100,1755604188954,8.72,67.59,-17.59,803,848,803,369,846,50.0,-0.14,0.916,0.386
143130,1755604188983,8.71,67.6,-17.58,807,842,806,366,853,33.333333333333336,-0.141,0.916,0.388
143159,1755604189013,8.73,67.61,-17.6,801,839,808,404,855,34.48275862068966,-0.142,0.916,0.387
143188,1755604189042,8.73,67.61,-17.59,805,845,811,405,844,34.48275862068966,-0.142,0.915,0.385
143218,1755604189072,8.74,67.59,-17.6,794,840,810,361,844,33.333333333333336,-0.141,0.916,0.386
143247,1755604189101,8.75,67.58,-17.61,794,848,806,352,848,34.48275862068966,-0.141,0.916,0.387
143277,1755604189131,8.74,67.58,-17.62,802,840,811,385,843,33.333333333333336,-0.141,0.916,0.387
143306,1755604189160,8.74,67.62,-17.63,802,839,809,398,848,34.48275862068966,-0.141,0.918,0.387
143336,1755604189190,8.75,67.62,-17.63,795,839,811,383,845,33.333333333333336,-0.14,0.917,0.386
143366,1755604189219,8.74,67.6,-17.64,796,844,808,340,841,33.333333333333336,-0.139,0.917,0.385
143395,1755604189249,8.73,67.62,-17.64,798,842,808,358,851,34.48275862068966,-0.14,0.917,0.387
143424,1755604189278,8.73,67.64,-17.64,802,834,810,409,848,34.48275862068966,-0.141,0.917,0.388
143454,1755604189307,8.73,67.65,-17.64,804,835,810,405,846,33.333333333333336,-0.141,0.916,0.386
143513,1755604189367,8.71,67.59,-17.63,795,842,801,346,848,33.333333333333336,-0.139,0.917,0.385
143542,1755604189397,8.72,67.6,-17.64,800,846,809,409,842,34.48275862068966,-0.139,0.917,0.386
143572,1755604189426,8.72,67.63,-17.65,804,847,808,411,850,33.333333333333336,-0.139,0.918,0.387
143602,1755604189456,8.73,67.61,-17.69,801,843,812,372,837,33.333333333333336,-0.139,0.916,0.386
143631,1755604189485,8.74,67.58,-17.71,801,836,811,335,848,34.48275862068966,-0.14,0.916,0.386
143661,1755604189514,8.73,67.57,-17.74,803,833,810,368,846,33.333333333333336,-0.139,0.917,0.388
143690,1755604189544,8.75,67.59,-17.8,793,845,813,406,845,34.48275862068966,-0.14,0.917,0.389
143719,1755604189573,8.75,67.59,-17.8,798,845,805,390,850,34.48275862068966,-0.14,0.917,0.386
143749,1755604189603,8.72,67.55,-17.8,803,834,811,348,847,33.333333333333336,-0.139,0.916,0.384
143779,1755604189632,8.71,67.56,-17.84,800,830,810,354,849,33.333333333333336,-0.141,0.918,0.388
143808,1755604189662,8.72,67.58,-17.87,797,840,810,409,848,34.48275862068966,-0.143,0.915,0.388
143838,1755604189692,8.73,67.55,-17.85,804,835,808,418,846,33.333333333333336,-0.143,0.915,0.386
143868,1755604189722,8.71,67.52,-17.84,799,841,817,364,847,33.333333333333336,-0.141,0.915,0.387
143897,1755604189752,8.7,67.55,-17.85,801,840,807,341,843,34.48275862068966,-0.14,0.918,0.39
143927,1755604189781,8.7,67.59,-17.87,796,841,809,378,844,33.333333333333336,-0.14,0.916,0.388
143956,1755604189810,8.7,67.58,-17.87,795,840,812,384,851,34.48275862068966,-0.14,0.916,0.384
143986,1755604189839,8.69,67.54,-17.88,800,837,805,383,847,33.333333333333336,-0.14,0.917,0.383
144015,1755604189869,8.67,67.5,-17.9,802,850,808,354,845,34.48275862068966,-0.14,0.917,0.386
144044,1755604189898,8.67,67.54,-17.9,802,839,812,364,844,34.48275862068966,-0.141,0.917,0.389
144074,1755604189928,8.69,67.52,-17.92,797,841,817,414,845,33.333333333333336,-0.14,0.916,0.386
144103,1755604189957,8.68,67.47,-17.94,796,843,806,397,845,34.48275862068966,-0.14,0.915,0.386
144163,1755604190017,8.69,67.5,-17.96,803,848,806,349,848,33.333333333333336,-0.142,0.916,0.39
144192,1755604190046,8.7,67.48,-17.97,799,847,812,398,847,34.48275862068966,-0.141,0.915,0.389
144222,1755604190076,8.68,67.46,-17.97,794,836,810,419,844,33.333333333333336,-0.14,0.916,0.389
144251,1755604190105,8.68,67.45,-17.99,802,841,806,362,847,34.48275862068966,-0.141,0.916,0.39
144281,1755604190135,8.68,67.45,-17.96,795,841,808,329,838,33.333333333333336,-0.142,0.914,0.391
144311,1755604190165,8.66,67.48,-17.94,801,842,805,366,850,33.333333333333336,-0.141,0.916,0.39
144340,1755604190194,8.67,67.49,-17.97,799,834,809,388,847,34.48275862068966,-0.14,0.916,0.389
144370,1755604190224,8.65,67.46,-17.95,797,842,814,382,847,33.333333333333336,-0.14,0.914,0.389
