timestamp_ms,recv_timestamp_ms,pitch,roll,yaw,flex1,flex2,flex3,flex4,flex5,sampling_hz,accel_x,accel_y,accel_z
156175,1755607805007,22.57,-78.98,-38.6,793,773,882,347,919,34.48275862068966,-0.305,-0.932,0.17
156293,1755607805016,22.12,-78.83,-38.15,793,770,882,363,923,34.48275862068966,-0.315,-0.928,0.158
156411,1755607805024,21.97,-78.47,-37.63,794,777,881,333,923,34.48275862068966,-0.322,-0.932,0.166
156677,1755607805043,21.55,-78.68,-36.91,795,779,886,354,916,33.333333333333336,-0.34,-0.918,0.168
156735,1755607805048,21.43,-78.81,-36.88,789,779,883,403,923,34.48275862068966,-0.344,-0.918,0.168
156765,1755607805050,21.37,-78.79,-36.89,788,778,886,423,923,33.333333333333336,-0.344,-0.919,0.169
156794,1755607805052,21.28,-78.82,-36.9,795,775,880,373,921,34.48275862068966,-0.344,-0.918,0.169
156824,1755607805054,21.33,-78.82,-36.86,792,775,885,340,918,33.333333333333336,-0.346,-0.918,0.17
156883,1755607805058,21.25,-78.77,-36.8,792,773,882,406,920,34.48275862068966,-0.347,-0.919,0.17
156942,1755607805063,21.26,-78.64,-36.72,788,779,885,357,920,34.48275862068966,-0.346,-0.915,0.17
156972,1755607805064,21.3,-78.63,-36.67,790,779,883,363,916,33.333333333333336,-0.347,-0.917,0.169
157089,1755607805073,21.33,-78.58,-36.51,794,776,882,356,921,34.48275862068966,-0.352,-0.913,0.168
157119,1755607805074,21.37,-78.55,-36.46,793,775,883,389,921,33.333333333333336,-0.351,-0.914,0.17
157149,1755607805077,21.36,-78.52,-36.47,790,779,883,418,916,33.333333333333336,-0.351,-0.913,0.17
157178,1755607805079,21.34,-78.5,-36.48,796,781,885,372,919,34.48275862068966,-0.352,-0.912,0.171
157208,1755607805081,21.38,-78.49,-36.46,794,777,885,345,918,33.333333333333336,-0.353,-0.912,0.171
157237,1755607805082,21.4,-78.51,-36.44,795,771,882,360,919,34.48275862068966,-0.354,-0.913,0.171
157326,1755607805088,21.32,-78.58,-36.45,791,784,878,364,914,34.48275862068966,-0.355,-0.913,0.17
157356,1755607805091,21.33,-78.6,-36.44,794,777,884,357,922,33.333333333333336,-0.355,-0.914,0.174
157415,1755607805095,21.36,-78.5,-36.41,797,778,882,406,914,33.333333333333336,-0.356,-0.913,0.173
157445,1755607805097,21.34,-78.47,-36.4,793,775,882,380,919,33.333333333333336,-0.356,-0.912,0.172
157474,1755607805099,21.34,-78.5,-36.38,788,774,881,344,922,34.48275862068966,-0.356,-0.91,0.173
157504,1755607805101,21.33,-78.46,-36.41,792,776,884,372,911,33.333333333333336,-0.357,-0.91,0.173
157534,1755607805104,21.31,-78.46,-36.44,793,774,879,409,916,33.333333333333336,-0.358,-0.912,0.172
157563,1755607805105,21.29,-78.47,-36.42,796,777,883,402,921,34.48275862068966,-0.359,-0.913,0.172
157592,1755607805107,21.29,-78.47,-36.38,790,779,877,361,922,34.48275862068966,-0.36,-0.914,0.174
157622,1755607805110,21.28,-78.43,-36.35,794,777,884,371,919,33.333333333333336,-0.357,-0.912,0.176
157651,1755607805112,21.28,-78.41,-36.37,792,782,884,416,915,34.48275862068966,-0.355,-0.911,0.178
157681,1755607805114,21.31,-78.42,-36.37,791,770,881,412,920,33.333333333333336,-0.355,-0.91,0.177
157710,1755607805117,21.35,-78.43,-36.38,793,776,880,376,916,34.48275862068966,-0.358,-0.911,0.176
157730,1755607805119,21.32,-78.42,-36.39,793,770,876,419,913,50.0,-0.359,-0.911,0.174
157760,1755607805121,21.34,-78.45,-36.39,794,771,884,366,914,33.333333333333336,-0.359,-0.911,0.174
157790,1755607805123,21.34,-78.49,-36.38,788,778,885,358,914,33.333333333333336,-0.358,-0.91,0.175
157819,1755607805125,21.3,-78.52,-36.4,794,774,882,407,918,34.48275862068966,-0.356,-0.909,0.175
157849,1755607805127,21.27,-78.52,-36.42,795,777,883,420,911,33.333333333333336,-0.356,-0.909,0.176
157878,1755607805129,21.29,-78.51,-36.44,791,774,886,376,922,34.48275862068966,-0.357,-0.912,0.176
157908,1755607805131,21.31,-78.5,-36.43,793,780,881,337,913,33.333333333333336,-0.357,-0.912,0.175
157937,1755607805133,21.31,-78.49,-36.43,792,775,878,372,920,34.48275862068966,-0.359,-0.912,0.174
157967,1755607805135,21.33,-78.49,-36.4,792,776,880,417,918,33.333333333333336,-0.36,-0.912,0.174
158026,1755607805140,21.39,-78.41,-36.36,790,776,883,358,922,33.333333333333336,-0.357,-0.91,0.176
158085,1755607805144,21.4,-78.39,-36.37,793,778,881,390,921,33.333333333333336,-0.359,-0.909,0.177
158114,1755607805145,21.4,-78.37,-36.36,795,776,880,389,913,34.48275862068966,-0.36,-0.911,0.178
158144,1755607805162,21.42,-78.32,-36.33,789,774,880,365,912,33.333333333333336,-0.36,-0.91,0.178
158174,1755607805192,21.47,-78.28,-36.29,791,778,881,353,919,33.333333333333336,-0.361,-0.91,0.177
158203,1755607805221,21.49,-78.26,-36.26,792,771,882,385,920,34.48275862068966,-0.36,-0.909,0.177
158233,1755607805251,21.54,-78.23,-36.22,790,778,881,392,916,33.333333333333336,-0.362,-0.91,0.179
158262,1755607805280,21.58,-78.2,-36.19,792,771,878,383,921,34.48275862068966,-0.362,-0.91,0.181
158292,1755607805310,21.61,-78.1,-36.19,793,770,883,335,915,33.333333333333336,-0.362,-0.909,0.18
158351,1755607805369,21.56,-78.14,-36.21,793,776,879,405,907,34.48275862068966,-0.362,-0.906,0.177
158381,1755607805399,21.58,-78.17,-36.2,788,768,880,409,921,33.333333333333336,-0.364,-0.909,0.18
158410,1755607805428,21.59,-78.15,-36.19,787,781,876,346,918,34.48275862068966,-0.364,-0.907,0.18
158440,1755607805458,21.59,-78.1,-36.2,792,779,881,345,916,33.333333333333336,-0.363,-0.907,0.182
158469,1755607805487,21.6,-78.09,-36.2,794,776,880,394,911,34.48275862068966,-0.363,-0.908,0.181
158499,1755607805517,21.63,-78.06,-36.16,786,775,879,402,914,33.333333333333336,-0.365,-0.91,0.182
158528,1755607805546,21.59,-78.03,-36.17,791,772,885,364,920,34.48275862068966,-0.365,-0.909,0.183
158587,1755607805605,21.61,-78.06,-36.13,790,767,881,371,912,33.333333333333336,-0.364,-0.906,0.183
158617,1755607805634,21.62,-78.05,-36.14,788,777,884,432,920,33.333333333333336,-0.363,-0.906,0.184
158646,1755607805664,21.19,-77.99,-36.14,788,772,880,391,916,34.48275862068966,-0.364,-0.905,0.184
158705,1755607805724,21.23,-77.98,-36.14,790,778,880,337,912,34.48275862068966,-0.365,-0.906,0.185
158735,1755607805753,21.26,-77.97,-36.13,786,773,880,374,915,33.333333333333336,-0.366,-0.907,0.185
158794,1755607805812,21.34,-77.97,-36.12,787,779,873,342,919,33.333333333333336,-0.366,-0.908,0.188
158824,1755607805842,21.32,-77.91,-36.12,791,772,882,339,912,33.333333333333336,-0.366,-0.905,0.187
158853,1755607805871,21.34,-77.93,-36.13,794,768,880,381,918,34.48275862068966,-0.366,-0.905,0.185
158883,1755607805901,21.35,-77.91,-36.15,789,775,879,419,916,33.333333333333336,-0.366,-0.905,0.185
158912,1755607805930,21.35,-77.92,-36.16,789,767,884,388,918,34.48275862068966,-0.367,-0.906,0.184
158941,1755607805960,21.35,-77.89,-36.16,792,776,877,347,914,34.48275862068966,-0.368,-0.907,0.186
159000,1755607806019,21.4,-77.83,-36.12,790,770,879,414,915,34.48275862068966,-0.367,-0.905,0.188
159030,1755607806048,21.44,-77.81,-36.1,790,767,883,388,916,33.333333333333336,-0.367,-0.905,0.188
159059,1755607806078,21.45,-77.78,-36.11,790,781,877,342,917,34.48275862068966,-0.367,-0.905,0.188
159089,1755607806107,21.47,-77.74,-36.1,792,768,881,340,916,33.333333333333336,-0.368,-0.906,0.189
159118,1755607806137,21.47,-77.8,-36.1,791,770,881,396,916,34.48275862068966,-0.367,-0.905,0.188
159148,1755607806166,21.52,-77.82,-36.08,790,773,878,394,917,33.333333333333336,-0.368,-0.905,0.191
159178,1755607806196,21.52,-77.77,-36.1,791,773,881,364,920,33.333333333333336,-0.367,-0.905,0.192
159207,1755607806225,21.5,-77.73,-36.13,787,778,876,348,919,34.48275862068966,-0.367,-0.903,0.192
159266,1755607806284,21.54,-77.74,-36.12,786,773,881,415,913,34.48275862068966,-0.368,-0.905,0.191
159296,1755607806314,21.56,-77.75,-36.11,794,780,880,393,922,33.333333333333336,-0.369,-0.906,0.191
159325,1755607806344,21.53,-77.71,-36.12,794,777,876,316,919,34.48275862068966,-0.367,-0.904,0.191
159345,1755607806363,21.54,-77.72,-36.11,787,776,882,367,911,50.0,-0.367,-0.904,0.192
159375,1755607806393,21.58,-77.7,-36.09,794,773,879,343,916,33.333333333333336,-0.366,-0.903,0.193
159404,1755607806422,21.58,-77.68,-36.13,793,775,874,371,915,34.48275862068966,-0.367,-0.905,0.192
159434,1755607806452,21.58,-77.7,-36.13,793,776,877,406,918,33.333333333333336,-0.367,-0.904,0.19
159463,1755607806481,21.62,-77.73,-36.1,789,767,884,407,918,34.48275862068966,-0.369,-0.905,0.191
159493,1755607806511,21.61,-77.71,-36.08,792,777,879,342,913,33.333333333333336,-0.368,-0.904,0.192
159523,1755607806541,21.58,-77.67,-36.1,791,772,881,341,921,33.333333333333336,-0.367,-0.904,0.194
159552,1755607806570,21.59,-77.68,-36.11,791,773,878,393,916,34.48275862068966,-0.367,-0.905,0.193
159582,1755607806600,21.61,-77.73,-36.11,792,775,882,398,915,33.333333333333336,-0.368,-0.904,0.191
159611,1755607806629,21.6,-77.73,-36.11,795,779,881,325,915,34.48275862068966,-0.37,-0.905,0.191
159641,1755607806659,21.59,-77.7,-36.11,793,778,884,324,920,33.333333333333336,-0.369,-0.903,0.189
159670,1755607806688,21.6,-77.73,-36.1,788,776,881,357,910,34.48275862068966,-0.369,-0.904,0.19
159700,1755607806718,21.65,-77.74,-36.08,795,772,882,407,918,33.333333333333336,-0.369,-0.903,0.192
159729,1755607806747,21.65,-77.69,-36.1,785,776,880,382,905,34.48275862068966,-0.369,-0.903,0.193
159759,1755607806777,21.65,-77.67,-36.11,788,774,879,333,914,33.333333333333336,-0.369,-0.904,0.192
159818,1755607806836,21.72,-77.62,-36.08,792,777,881,406,914,33.333333333333336,-0.369,-0.903,0.194
159847,1755607806865,21.74,-77.55,-36.08,788,770,876,413,916,34.48275862068966,-0.37,-0.903,0.193
159877,1755607806895,21.72,-77.53,-36.08,792,776,879,374,919,33.333333333333336,-0.37,-0.904,0.192
159906,1755607806924,21.74,-77.55,-36.06,791,778,881,368,916,34.48275862068966,-0.37,-0.903,0.192
159936,1755607806954,21.73,-77.55,-36.06,793,778,876,396,917,33.333333333333336,-0.37,-0.903,0.194
159965,1755607806983,21.72,-77.56,-36.07,788,780,880,414,916,34.48275862068966,-0.369,-0.904,0.195
159994,1755607807013,21.71,-77.54,-36.07,793,769,880,391,918,34.48275862068966,-0.369,-0.902,0.193
160024,1755607807042,21.72,-77.57,-36.08,789,773,874,370,914,33.333333333333336,-0.369,-0.901,0.192
160053,1755607807072,21.71,-77.59,-36.1,794,774,876,380,916,34.48275862068966,-0.371,-0.902,0.192
160083,1755607807101,21.7,-77.59,-36.1,794,778,884,397,913,33.333333333333336,-0.371,-0.903,0.192
160113,1755607807131,21.7,-77.63,-36.1,791,770,881,352,922,33.333333333333336,-0.37,-0.905,0.192
160142,1755607807160,21.69,-77.68,-36.1,786,773,884,337,911,34.48275862068966,-0.368,-0.903,0.193
160172,1755607807190,21.7,-77.71,-36.11,787,770,879,335,919,33.333333333333336,-0.369,-0.903,0.194
160201,1755607807219,21.69,-77.73,-36.14,791,768,882,391,915,34.48275862068966,-0.369,-0.903,0.192
160231,1755607807249,21.68,-77.73,-36.15,793,768,874,360,917,33.333333333333336,-0.37,-0.904,0.192
160260,1755607807278,21.7,-77.7,-36.14,794,774,881,336,917,34.48275862068966,-0.37,-0.904,0.194
160290,1755607807308,21.72,-77.66,-36.14,791,774,876,332,909,33.333333333333336,-0.368,-0.904,0.194
160319,1755607807337,21.74,-77.65,-36.15,793,774,878,367,914,34.48275862068966,-0.367,-0.903,0.193
160349,1755607807367,21.75,-77.64,-36.16,794,777,883,381,914,33.333333333333336,-0.368,-0.903,0.192
160408,1755607807426,21.75,-77.64,-36.22,792,770,880,334,917,33.333333333333336,-0.368,-0.904,0.192
160437,1755607807455,21.75,-77.64,-36.23,792,777,875,373,916,34.48275862068966,-0.368,-0.899,0.193
160467,1755607807485,21.8,-77.65,-36.21,792,779,876,393,915,33.333333333333336,-0.37,-0.902,0.194
160526,1755607807544,21.82,-77.6,-36.17,787,770,875,348,915,33.333333333333336,-0.368,-0.899,0.191
160555,1755607807573,21.82,-77.63,-36.2,790,774,880,322,916,34.48275862068966,-0.369,-0.899,0.191
160585,1755607807603,21.81,-77.61,-36.21,794,780,881,377,911,33.333333333333336,-0.369,-0.9,0.192
160614,1755607807632,21.77,-77.62,-36.25,795,773,879,401,902,34.48275862068966,-0.369,-0.901,0.192
160644,1755607807662,21.76,-77.62,-36.25,792,777,875,347,909,33.333333333333336,-0.368,-0.901,0.193
160674,1755607807692,21.79,-77.62,-36.26,793,774,876,348,917,33.333333333333336,-0.367,-0.901,0.193
160703,1755607807721,21.79,-77.6,-36.25,792,776,875,378,920,34.48275862068966,-0.364,-0.901,0.192
160733,1755607807751,21.83,-77.6,-36.24,790,769,881,395,917,33.333333333333336,-0.365,-0.901,0.192
160763,1755607807781,21.8,-77.58,-36.29,795,780,872,387,920,33.333333333333336,-0.368,-0.904,0.194
160792,1755607807810,21.84,-77.53,-36.26,788,778,879,335,917,34.48275862068966,-0.37,-0.905,0.194
160821,1755607807840,21.89,-77.52,-36.23,790,775,875,359,918,34.48275862068966,-0.37,-0.903,0.194
160851,1755607807869,21.93,-77.55,-36.23,788,776,876,410,914,33.333333333333336,-0.369,-0.9,0.195
160880,1755607807899,21.9,-77.5,-36.29,790,775,879,416,915,34.48275862068966,-0.369,-0.901,0.194
160910,1755607807928,21.87,-77.52,-36.33,794,775,880,373,912,33.333333333333336,-0.368,-0.902,0.191
160939,1755607807958,21.89,-77.59,-36.33,793,775,880,358,915,34.48275862068966,-0.368,-0.904,0.193
160969,1755607807987,21.91,-77.6,-36.33,788,778,879,395,912,33.333333333333336,-0.369,-0.905,0.195
160998,1755607808017,21.95,-77.58,-36.32,792,776,880,422,911,34.48275862068966,-0.367,-0.904,0.195
161028,1755607808046,21.94,-77.62,-36.34,789,772,875,376,914,33.333333333333336,-0.366,-0.904,0.193
161057,1755607808076,21.9,-77.66,-36.36,791,771,878,343,917,34.48275862068966,-0.368,-0.904,0.191
161087,1755607808105,21.87,-77.73,-36.36,793,779,880,367,915,33.333333333333336,-0.368,-0.904,0.192
161117,1755607808135,21.88,-77.74,-36.35,791,774,873,417,913,33.333333333333336,-0.367,-0.904,0.194
161146,1755607808165,21.89,-77.7,-36.35,791,774,880,358,919,34.48275862068966,-0.367,-0.905,0.194
161176,1755607808194,21.9,-77.67,-36.33,792,777,880,344,909,33.333333333333336,-0.368,-0.906,0.193
161205,1755607808223,21.93,-77.64,-36.3,791,779,880,343,915,34.48275862068966,-0.368,-0.906,0.192
161235,1755607808253,21.9,-77.61,-36.29,790,774,882,393,908,33.333333333333336,-0.368,-0.904,0.192
161264,1755607808282,21.9,-77.61,-36.29,791,769,873,404,917,34.48275862068966,-0.368,-0.905,0.192
161294,1755607808312,21.89,-77.62,-36.27,792,776,879,360,914,33.333333333333336,-0.369,-0.905,0.191
161323,1755607808342,21.89,-77.61,-36.25,788,777,876,348,914,34.48275862068966,-0.369,-0.905,0.193
161353,1755607808371,21.87,-77.61,-36.25,793,776,886,382,919,33.333333333333336,-0.368,-0.904,0.192
161382,1755607808400,21.88,-77.62,-36.23,789,776,879,397,917,34.48275862068966,-0.37,-0.904,0.192
161412,1755607808430,21.85,-77.64,-36.25,794,777,878,377,911,33.333333333333336,-0.37,-0.902,0.188
161441,1755607808459,21.78,-77.76,-36.27,790,775,874,340,909,34.48275862068966,-0.371,-0.9,0.188
161500,1755607808518,21.74,-77.84,-36.3,786,777,877,408,915,34.48275862068966,-0.37,-0.903,0.194
161530,1755607808548,21.78,-77.77,-36.27,796,769,877,404,913,33.333333333333336,-0.37,-0.905,0.197
161559,1755607808578,21.8,-77.69,-36.25,794,780,881,351,917,34.48275862068966,-0.369,-0.904,0.194
