timestamp_ms,recv_timestamp_ms,pitch,roll,yaw,flex1,flex2,flex3,flex4,flex5,sampling_hz,accel_x,accel_y,accel_z
193130,1755607585646,6.37,-152.65,-13.21,792,769,779,358,878,33.333333333333336,-0.134,-0.453,-0.879
193159,1755607585649,6.36,-152.68,-13.24,795,777,783,336,882,34.48275862068966,-0.136,-0.453,-0.879
193189,1755607585651,6.31,-152.68,-13.25,795,775,782,373,880,33.333333333333336,-0.135,-0.451,-0.879
193219,1755607585653,6.33,-152.75,-13.3,796,775,784,415,878,33.333333333333336,-0.137,-0.452,-0.877
193248,1755607585655,6.38,-152.75,-13.31,797,769,782,411,878,34.48275862068966,-0.138,-0.451,-0.876
193278,1755607585657,6.38,-152.74,-13.31,797,773,786,354,874,33.333333333333336,-0.138,-0.451,-0.878
193328,1755607585661,6.39,-152.79,-13.34,797,775,785,366,877,50.0,-0.139,-0.451,-0.879
193358,1755607585663,6.4,-152.8,-13.36,797,780,782,363,884,33.333333333333336,-0.138,-0.45,-0.877
193387,1755607585665,6.41,-152.8,-13.4,797,776,784,418,881,34.48275862068966,-0.138,-0.45,-0.878
193417,1755607585667,6.41,-152.82,-13.42,795,774,779,423,878,33.333333333333336,-0.139,-0.451,-0.881
193446,1755607585669,6.41,-152.83,-13.42,797,770,782,347,866,34.48275862068966,-0.139,-0.45,-0.88
193476,1755607585671,6.39,-152.83,-13.41,795,776,784,320,880,33.333333333333336,-0.14,-0.45,-0.879
193505,1755607585673,6.4,-152.81,-13.4,796,782,785,356,877,34.48275862068966,-0.14,-0.45,-0.88
193535,1755607585674,6.45,-152.82,-13.39,794,768,785,406,876,33.333333333333336,-0.141,-0.449,-0.879
193556,1755607585676,6.47,-152.83,-13.38,796,775,783,341,875,47.61904761904762,-0.141,-0.448,-0.88
193615,1755607585680,6.47,-152.95,-13.39,795,782,785,396,875,33.333333333333336,-0.14,-0.447,-0.882
193644,1755607585681,6.48,-152.98,-13.39,797,774,783,340,879,34.48275862068966,-0.14,-0.448,-0.878
193674,1755607585683,6.54,-152.93,-13.38,794,775,783,337,880,33.333333333333336,-0.141,-0.448,-0.878
193704,1755607585686,6.6,-152.92,-13.36,795,779,784,392,874,33.333333333333336,-0.142,-0.448,-0.881
193733,1755607585688,6.65,-152.96,-13.33,793,772,781,404,876,34.48275862068966,-0.141,-0.448,-0.881
193763,1755607585689,6.72,-153.0,-13.33,797,774,782,372,880,33.333333333333336,-0.138,-0.447,-0.879
193793,1755607585691,6.79,-152.98,-13.32,797,780,785,341,875,33.333333333333336,-0.138,-0.446,-0.878
193822,1755607585693,6.77,-152.89,-13.26,796,780,780,373,880,34.48275862068966,-0.136,-0.444,-0.881
193881,1755607585697,6.74,-152.94,-13.32,797,781,785,401,875,34.48275862068966,-0.138,-0.444,-0.878
193911,1755607585699,6.76,-152.49,-13.33,798,775,784,358,876,33.333333333333336,-0.14,-0.445,-0.875
193941,1755607585700,6.8,-152.42,-13.32,791,777,781,311,880,33.333333333333336,-0.139,-0.444,-0.878
193970,1755607585702,6.82,-152.48,-13.33,795,771,783,372,879,34.48275862068966,-0.142,-0.446,-0.881
194000,1755607585704,6.86,-152.55,-13.33,793,775,781,394,880,33.333333333333336,-0.14,-0.445,-0.88
194030,1755607585706,6.9,-152.55,-13.31,791,775,784,363,881,33.333333333333336,-0.14,-0.445,-0.877
194059,1755607585708,6.95,-152.55,-13.32,798,780,785,323,878,34.48275862068966,-0.139,-0.443,-0.88
194089,1755607585709,6.94,-152.59,-13.33,794,775,779,362,878,33.333333333333336,-0.138,-0.443,-0.882
194118,1755607585711,6.92,-152.64,-13.37,798,778,789,412,879,34.48275862068966,-0.137,-0.442,-0.881
194148,1755607585713,6.91,-152.6,-13.38,795,774,786,377,871,33.333333333333336,-0.136,-0.443,-0.879
194177,1755607585715,6.93,-152.56,-13.41,796,780,780,340,882,34.48275862068966,-0.139,-0.444,-0.881
194207,1755607585716,6.93,-152.59,-13.41,797,775,786,332,880,33.333333333333336,-0.14,-0.445,-0.884
194237,1755607585718,6.97,-152.67,-13.42,797,775,786,408,877,33.333333333333336,-0.139,-0.445,-0.882
194266,1755607585720,7.0,-152.71,-13.42,798,778,785,410,876,34.48275862068966,-0.14,-0.445,-0.88
194296,1755607585722,7.03,-152.66,-13.4,795,772,783,364,878,33.333333333333336,-0.139,-0.444,-0.881
194326,1755607585724,7.04,-152.65,-13.4,797,770,786,346,881,33.333333333333336,-0.137,-0.444,-0.883
194355,1755607585725,7.06,-152.69,-13.43,796,778,783,370,875,34.48275862068966,-0.136,-0.444,-0.884
194385,1755607585727,7.03,-152.73,-13.44,796,779,787,392,885,33.333333333333336,-0.136,-0.443,-0.882
194444,1755607585731,7.01,-152.68,-13.49,795,780,783,319,876,33.333333333333336,-0.136,-0.444,-0.881
194474,1755607585733,7.01,-152.72,-13.52,799,782,783,323,880,33.333333333333336,-0.137,-0.445,-0.883
194503,1755607585735,6.98,-152.75,-13.54,797,774,778,393,879,34.48275862068966,-0.136,-0.443,-0.884
194533,1755607585737,6.96,-152.77,-13.57,793,774,783,403,879,33.333333333333336,-0.137,-0.444,-0.881
194563,1755607585739,6.95,-152.76,-13.61,796,773,785,323,882,33.333333333333336,-0.136,-0.444,-0.882
194592,1755607585741,6.93,-152.78,-13.64,799,778,785,309,871,34.48275862068966,-0.138,-0.444,-0.883
194622,1755607585743,6.9,-152.78,-13.65,797,770,784,335,881,33.333333333333336,-0.138,-0.444,-0.881
194652,1755607585745,6.91,-152.75,-13.66,796,775,786,414,884,33.333333333333336,-0.139,-0.445,-0.881
194681,1755607585747,6.92,-152.73,-13.66,793,776,785,401,880,34.48275862068966,-0.14,-0.445,-0.883
194711,1755607585750,6.91,-152.73,-13.67,798,775,785,344,882,33.333333333333336,-0.139,-0.445,-0.884
194740,1755607585752,6.9,-152.73,-13.65,792,778,781,344,877,34.48275862068966,-0.139,-0.445,-0.88
194770,1755607585754,6.9,-152.68,-13.64,793,774,778,390,877,33.333333333333336,-0.14,-0.444,-0.88
194800,1755607585756,6.88,-152.62,-13.64,797,781,786,425,872,33.333333333333336,-0.14,-0.445,-0.882
194829,1755607585758,6.83,-152.61,-13.65,792,772,782,382,879,34.48275862068966,-0.139,-0.445,-0.883
194859,1755607585760,6.8,-152.6,-13.65,798,777,786,354,879,33.333333333333336,-0.142,-0.445,-0.88
194889,1755607585763,6.79,-152.53,-13.62,791,773,781,384,878,33.333333333333336,-0.144,-0.447,-0.878
194918,1755607585765,6.79,-152.45,-13.58,796,774,784,409,876,34.48275862068966,-0.144,-0.447,-0.879
194948,1755607585767,6.71,-152.38,-13.54,798,778,783,400,878,33.333333333333336,-0.14,-0.444,-0.88
194977,1755607585769,6.66,-152.35,-13.56,792,778,780,296,877,34.48275862068966,-0.141,-0.445,-0.88
195007,1755607585771,6.61,-152.29,-13.55,797,777,787,331,878,33.333333333333336,-0.144,-0.449,-0.876
195037,1755607585773,6.62,-152.2,-13.55,798,772,781,393,876,33.333333333333336,-0.146,-0.45,-0.875
195066,1755607585775,6.68,-152.17,-13.55,797,776,785,415,881,34.48275862068966,-0.148,-0.453,-0.876
195096,1755607585777,6.78,-152.18,-13.53,799,769,781,354,878,33.333333333333336,-0.152,-0.455,-0.875
195125,1755607585779,6.87,-152.21,-13.48,796,773,786,348,878,34.48275862068966,-0.147,-0.455,-0.875
195155,1755607585782,6.99,-152.26,-13.49,797,779,783,371,875,33.333333333333336,-0.146,-0.455,-0.876
195184,1755607585784,7.07,-152.32,-13.48,797,777,781,417,878,34.48275862068966,-0.144,-0.455,-0.877
195214,1755607585785,7.17,-152.42,-13.51,796,779,784,383,880,33.333333333333336,-0.142,-0.455,-0.878
195243,1755607585788,7.27,-152.52,-13.54,792,773,780,324,877,34.48275862068966,-0.141,-0.453,-0.877
195273,1755607585789,7.46,-152.65,-13.62,798,780,783,339,870,33.333333333333336,-0.142,-0.452,-0.876
195303,1755607585792,7.68,-152.77,-13.67,794,769,785,355,881,33.333333333333336,-0.144,-0.451,-0.876
195333,1755607585794,7.88,-152.9,-13.7,798,773,779,385,876,33.333333333333336,-0.139,-0.45,-0.879
195363,1755607585796,8.07,-153.14,-13.81,796,775,785,359,888,33.333333333333336,-0.129,-0.447,-0.882
195392,1755607585799,8.09,-153.27,-13.85,792,776,784,319,876,34.48275862068966,-0.128,-0.443,-0.883
195422,1755607585800,7.88,-153.16,-13.83,794,770,785,362,877,33.333333333333336,-0.128,-0.439,-0.886
195451,1755607585803,7.57,-153.09,-13.85,791,776,785,396,879,34.48275862068966,-0.126,-0.434,-0.886
195481,1755607585804,7.31,-153.13,-13.97,793,780,784,386,882,33.333333333333336,-0.13,-0.434,-0.884
195501,1755607585807,7.21,-153.17,-14.05,792,779,786,392,875,50.0,-0.138,-0.437,-0.88
195530,1755607585809,7.12,-153.08,-14.06,796,772,784,376,878,34.48275862068966,-0.144,-0.44,-0.879
195560,1755607585811,7.09,-153.01,-14.03,796,777,783,338,878,33.333333333333336,-0.148,-0.441,-0.879
195590,1755607585813,7.12,-152.98,-13.97,798,774,780,337,876,33.333333333333336,-0.149,-0.44,-0.877
195620,1755607585815,7.19,-153.01,-13.93,794,779,785,407,882,33.333333333333336,-0.144,-0.441,-0.879
195649,1755607585817,7.27,-153.05,-13.92,794,769,784,412,876,34.48275862068966,-0.14,-0.443,-0.882
195679,1755607585819,7.26,-153.09,-13.89,793,776,785,366,880,33.333333333333336,-0.141,-0.44,-0.885
195709,1755607585821,7.18,-153.14,-13.88,797,776,784,332,877,33.333333333333336,-0.137,-0.437,-0.888
195739,1755607585823,7.06,-153.27,-13.88,800,770,788,353,878,33.333333333333336,-0.139,-0.438,-0.888
195768,1755607585825,6.94,-153.43,-13.9,793,769,779,404,875,34.48275862068966,-0.138,-0.437,-0.889
195798,1755607585827,6.8,-153.59,-13.92,798,777,786,397,879,33.333333333333336,-0.139,-0.437,-0.887
195828,1755607585829,6.76,-153.69,-13.94,796,774,786,348,871,33.333333333333336,-0.144,-0.439,-0.885
195857,1755607585831,6.76,-153.74,-13.91,797,773,782,351,886,34.48275862068966,-0.148,-0.436,-0.885
195917,1755607585835,6.82,-153.99,-13.82,798,777,786,418,878,33.333333333333336,-0.149,-0.431,-0.887
195946,1755607585837,6.84,-154.09,-13.77,790,781,778,362,879,34.48275862068966,-0.148,-0.429,-0.886
195976,1755607585839,6.86,-154.13,-13.73,793,770,784,311,880,33.333333333333336,-0.146,-0.429,-0.887
196006,1755607585841,6.86,-154.14,-13.75,799,770,779,339,878,33.333333333333336,-0.146,-0.425,-0.889
196035,1755607585843,6.82,-154.19,-13.73,797,778,784,406,882,34.48275862068966,-0.148,-0.424,-0.891
196065,1755607585845,6.79,-154.28,-13.74,792,774,787,403,873,33.333333333333336,-0.148,-0.424,-0.891
196095,1755607585848,6.78,-154.31,-13.73,795,773,785,344,874,33.333333333333336,-0.149,-0.423,-0.888
196115,1755607585850,6.83,-154.31,-13.75,795,780,786,421,874,50.0,-0.149,-0.422,-0.888
196144,1755607585880,6.87,-154.31,-13.78,795,778,788,363,881,34.48275862068966,-0.15,-0.422,-0.891
196174,1755607585909,6.89,-154.35,-13.8,797,773,786,359,879,33.333333333333336,-0.152,-0.422,-0.891
196204,1755607585939,6.89,-154.4,-13.79,797,783,779,403,881,33.333333333333336,-0.151,-0.422,-0.891
196234,1755607585969,6.93,-154.41,-13.79,795,776,785,425,876,33.333333333333336,-0.153,-0.422,-0.891
196264,1755607585999,6.98,-154.45,-13.81,791,773,785,385,896,33.333333333333336,-0.152,-0.419,-0.893
196293,1755607586029,7.01,-154.5,-13.83,792,781,787,289,881,34.48275862068966,-0.153,-0.418,-0.893
196323,1755607586058,7.03,-154.54,-13.85,796,780,786,334,879,33.333333333333336,-0.152,-0.416,-0.893
196353,1755607586088,7.07,-154.6,-13.88,798,778,787,389,878,33.333333333333336,-0.151,-0.416,-0.892
196382,1755607586117,7.13,-154.62,-13.89,798,782,786,401,877,34.48275862068966,-0.153,-0.415,-0.893
196412,1755607586147,7.16,-154.67,-13.9,796,777,788,363,879,33.333333333333336,-0.155,-0.414,-0.896
196441,1755607586177,7.19,-154.77,-13.89,798,781,782,334,878,34.48275862068966,-0.154,-0.413,-0.896
196471,1755607586207,7.22,-154.89,-13.88,796,780,783,377,873,33.333333333333336,-0.152,-0.413,-0.895
196501,1755607586236,7.23,-154.95,-13.88,796,776,779,413,888,33.333333333333336,-0.149,-0.411,-0.895
196531,1755607586266,7.23,-154.99,-13.89,798,777,784,381,880,33.333333333333336,-0.15,-0.41,-0.898
196560,1755607586295,7.19,-155.1,-13.91,798,781,786,331,874,34.48275862068966,-0.151,-0.409,-0.901
196590,1755607586325,7.13,-155.25,-13.92,796,776,780,353,875,33.333333333333336,-0.15,-0.41,-0.897
196619,1755607586355,7.17,-155.27,-13.93,796,770,784,400,876,34.48275862068966,-0.153,-0.408,-0.893
196649,1755607586384,7.22,-155.18,-13.93,799,779,786,421,878,33.333333333333336,-0.154,-0.405,-0.894
196678,1755607586414,7.26,-155.17,-13.93,794,777,786,359,876,34.48275862068966,-0.154,-0.405,-0.899
196708,1755607586443,7.28,-155.24,-13.95,795,775,780,321,877,33.333333333333336,-0.152,-0.405,-0.9
196737,1755607586473,7.25,-155.32,-13.93,795,779,791,386,881,34.48275862068966,-0.153,-0.404,-0.9
196796,1755607586531,7.17,-155.49,-13.92,792,769,779,385,885,34.48275862068966,-0.152,-0.404,-0.901
196826,1755607586561,7.19,-155.52,-13.91,797,776,785,323,881,33.333333333333336,-0.153,-0.402,-0.898
196855,1755607586591,7.23,-155.51,-13.9,795,771,785,356,886,34.48275862068966,-0.153,-0.402,-0.899
196885,1755607586620,7.25,-155.56,-13.9,796,780,783,407,877,33.333333333333336,-0.155,-0.401,-0.902
196915,1755607586650,7.22,-155.61,-13.87,794,777,788,405,878,33.333333333333336,-0.155,-0.399,-0.901
196944,1755607586679,7.24,-155.66,-13.87,791,770,783,343,875,34.48275862068966,-0.156,-0.399,-0.9
196974,1755607586709,7.27,-155.69,-13.86,792,776,786,325,878,33.333333333333336,-0.156,-0.398,-0.901
197004,1755607586739,7.31,-155.74,-13.88,797,769,783,341,879,33.333333333333336,-0.155,-0.395,-0.902
197033,1755607586768,7.31,-155.8,-13.9,792,771,780,406,882,34.48275862068966,-0.154,-0.394,-0.902
197063,1755607586798,7.33,-155.88,-13.93,794,781,784,371,881,33.333333333333336,-0.156,-0.394,-0.902
197092,1755607586827,7.35,-155.9,-13.94,795,774,784,329,879,34.48275862068966,-0.158,-0.395,-0.901
197122,1755607586857,7.38,-155.92,-13.95,796,773,787,350,883,33.333333333333336,-0.158,-0.394,-0.903
197151,1755607586887,7.41,-155.99,-13.97,794,770,782,425,880,34.48275862068966,-0.158,-0.393,-0.903
197181,1755607586916,7.42,-156.05,-13.98,795,773,783,401,880,33.333333333333336,-0.158,-0.392,-0.903
197210,1755607586946,7.42,-156.12,-14.01,797,778,780,341,882,34.48275862068966,-0.158,-0.391,-0.904
197240,1755607586975,7.43,-156.21,-14.04,798,776,786,349,885,33.333333333333336,-0.158,-0.39,-0.905
197299,1755607587034,7.48,-156.34,-14.06,794,768,781,402,877,34.48275862068966,-0.158,-0.388,-0.902
197329,1755607587064,7.51,-156.31,-14.06,794,781,780,371,881,33.333333333333336,-0.157,-0.387,-0.903
197388,1755607587123,7.51,-156.36,-14.08,792,768,777,385,876,33.333333333333336,-0.157,-0.387,-0.908
197417,1755607587152,7.52,-156.39,-14.09,792,771,781,418,877,34.48275862068966,-0.157,-0.386,-0.905
197447,1755607587182,7.58,-156.34,-14.06,798,779,786,379,885,33.333333333333336,-0.159,-0.387,-0.904
197476,1755607587212,7.63,-156.28,-14.02,795,772,781,315,876,34.48275862068966,-0.159,-0.386,-0.906
197496,1755607587232,7.66,-156.29,-14.0,797,778,782,411,881,50.0,-0.157,-0.387,-0.909
197526,1755607587261,7.67,-156.34,-13.97,795,776,786,350,875,33.333333333333336,-0.157,-0.386,-0.909
197556,1755607587291,7.71,-156.34,-13.95,799,776,781,353,877,33.333333333333336,-0.156,-0.384,-0.905
197576,1755607587311,7.76,-156.32,-13.95,797,778,787,363,877,50.0,-0.156,-0.384,-0.904
197605,1755607587340,7.8,-156.32,-13.94,795,777,785,378,883,34.48275862068966,-0.157,-0.385,-0.908
197635,1755607587370,7.84,-156.37,-13.91,797,782,788,421,874,33.333333333333336,-0.157,-0.386,-0.907
197664,1755607587399,7.91,-156.37,-13.88,794,773,782,416,875,34.48275862068966,-0.157,-0.386,-0.905
197694,1755607587429,7.97,-156.34,-13.84,793,775,783,352,882,33.333333333333336,-0.157,-0.386,-0.906
197753,1755607587488,8.04,-156.3,-13.81,799,777,786,417,879,33.333333333333336,-0.154,-0.382,-0.905
197782,1755607587517,8.1,-156.21,-13.79,793,776,778,421,881,34.48275862068966,-0.154,-0.385,-0.902
197812,1755607587547,8.2,-156.06,-13.76,798,781,783,359,878,33.333333333333336,-0.154,-0.385,-0.901
197841,1755607587576,8.25,-155.94,-13.74,797,777,781,324,877,34.48275862068966,-0.153,-0.385,-0.906
197871,1755607587606,8.19,-155.89,-13.72,798,774,784,378,876,33.333333333333336,-0.152,-0.386,-0.908
197900,1755607587635,8.14,-155.91,-13.72,795,779,786,403,874,34.48275862068966,-0.152,-0.389,-0.904
197930,1755607587665,8.07,-155.89,-13.68,794,772,786,387,884,33.333333333333336,-0.151,-0.39,-0.903
197960,1755607587695,7.96,-155.83,-13.64,797,777,785,347,880,33.333333333333336,-0.152,-0.392,-0.906
197989,1755607587724,7.85,-155.85,-13.64,794,777,791,351,876,34.48275862068966,-0.153,-0.392,-0.908
198019,1755607587755,7.84,-155.9,-13.64,789,777,783,419,878,33.333333333333336,-0.155,-0.394,-0.903
198068,1755607587804,7.97,-155.9,-13.62,795,768,786,417,878,34.48275862068966,-0.163,-0.393,-0.898
198098,1755607587833,8.02,-155.85,-13.6,799,772,786,410,877,33.333333333333336,-0.162,-0.392,-0.903
198127,1755607587863,8.05,-155.89,-13.59,794,771,785,359,884,34.48275862068966,-0.161,-0.393,-0.905
198157,1755607587892,8.12,-155.96,-13.6,790,781,788,333,877,33.333333333333336,-0.159,-0.393,-0.901
198216,1755607587951,8.14,-155.82,-13.54,798,776,787,420,877,34.48275862068966,-0.161,-0.394,-0.905
198246,1755607587981,8.12,-155.77,-13.51,792,772,781,382,885,33.333333333333336,-0.16,-0.393,-0.903
198266,1755607588001,8.14,-155.72,-13.5,796,771,777,407,882,50.0,-0.16,-0.396,-0.904
198295,1755607588030,8.15,-155.56,-13.47,797,783,787,347,874,34.48275862068966,-0.163,-0.396,-0.9
198325,1755607588060,8.18,-155.44,-13.42,796,776,783,326,880,33.333333333333336,-0.159,-0.397,-0.895
198355,1755607588090,8.34,-155.41,-13.37,796,776,783,358,874,33.333333333333336,-0.162,-0.403,-0.897
198384,1755607588119,8.45,-155.33,-13.25,796,771,779,406,876,34.48275862068966,-0.164,-0.406,-0.901
198414,1755607588149,8.47,-155.17,-13.1,797,777,784,402,882,33.333333333333336,-0.163,-0.402,-0.899
198443,1755607588179,8.59,-155.06,-13.03,791,769,786,327,883,34.48275862068966,-0.158,-0.401,-0.895
198473,1755607588208,8.76,-155.06,-12.99,796,776,781,324,876,33.333333333333336,-0.157,-0.401,-0.895
198503,1755607588238,8.91,-155.01,-12.94,791,773,779,407,885,33.333333333333336,-0.155,-0.404,-0.898
198532,1755607588267,8.92,-154.9,-12.9,796,771,785,414,876,34.48275862068966,-0.152,-0.404,-0.903
198561,1755607588297,8.86,-154.83,-12.91,797,774,785,364,881,34.48275862068966,-0.15,-0.404,-0.904
198591,1755607588326,8.8,-154.86,-12.93,796,781,787,334,878,33.333333333333336,-0.149,-0.407,-0.898
198621,1755607588356,8.81,-154.84,-12.93,793,777,784,371,877,33.333333333333336,-0.151,-0.409,-0.895
198651,1755607588386,8.87,-154.78,-12.92,797,776,781,403,877,33.333333333333336,-0.154,-0.412,-0.897
198680,1755607588415,8.88,-154.74,-12.89,794,774,783,376,870,34.48275862068966,-0.155,-0.411,-0.897
198709,1755607588445,8.87,-154.73,-12.86,792,775,783,318,877,34.48275862068966,-0.153,-0.412,-0.896
198739,1755607588474,8.87,-154.69,-12.84,797,776,790,347,883,33.333333333333336,-0.153,-0.413,-0.896
198769,1755607588504,8.87,-154.66,-12.83,797,769,783,400,882,33.333333333333336,-0.152,-0.414,-0.894
198798,1755607588533,8.89,-154.58,-12.83,798,776,782,409,877,34.48275862068966,-0.15,-0.415,-0.893
198827,1755607588563,8.89,-154.52,-12.82,796,781,779,354,888,34.48275862068966,-0.151,-0.416,-0.896
198857,1755607588592,8.84,-154.52,-12.81,798,776,784,349,874,33.333333333333336,-0.152,-0.416,-0.897
198886,1755607588622,8.77,-154.49,-12.79,793,772,784,400,878,34.48275862068966,-0.152,-0.417,-0.894
198916,1755607588651,8.71,-154.4,-12.75,793,778,781,418,880,33.333333333333336,-0.151,-0.418,-0.891
198945,1755607588681,8.62,-154.24,-12.69,795,773,777,377,877,34.48275862068966,-0.154,-0.419,-0.892
198975,1755607588710,8.51,-154.09,-12.66,796,777,781,321,879,33.333333333333336,-0.151,-0.418,-0.895
199004,1755607588740,8.45,-154.09,-12.73,791,778,784,367,876,34.48275862068966,-0.151,-0.42,-0.894
199034,1755607588769,8.4,-154.09,-12.78,795,780,786,416,876,33.333333333333336,-0.154,-0.423,-0.891
199063,1755607588799,8.39,-154.03,-12.8,797,775,783,387,879,34.48275862068966,-0.159,-0.427,-0.888
199093,1755607588828,8.46,-153.96,-12.76,798,776,784,334,876,33.333333333333336,-0.163,-0.429,-0.886
199123,1755607588858,8.58,-153.93,-12.69,790,780,782,339,885,33.333333333333336,-0.164,-0.431,-0.887
199152,1755607588887,8.69,-153.95,-12.59,790,778,786,389,875,34.48275862068966,-0.162,-0.431,-0.886
199182,1755607588917,8.77,-153.9,-12.51,798,780,784,396,873,33.333333333333336,-0.16,-0.429,-0.886
199211,1755607588946,8.77,-153.82,-12.45,793,775,778,346,880,34.48275862068966,-0.156,-0.428,-0.888
199241,1755607588976,8.73,-153.79,-12.46,795,777,784,336,882,33.333333333333336,-0.151,-0.426,-0.889
199270,1755607589005,8.69,-153.77,-12.51,800,776,777,380,874,34.48275862068966,-0.15,-0.428,-0.888
199300,1755607589035,8.67,-153.75,-12.59,796,783,781,405,876,33.333333333333336,-0.154,-0.429,-0.888
199359,1755607589094,8.81,-153.84,-12.74,792,773,783,331,874,33.333333333333336,-0.155,-0.432,-0.884
199388,1755607589123,9.09,-153.93,-12.82,795,783,780,317,894,34.48275862068966,-0.16,-0.437,-0.883
199448,1755607589183,9.78,-153.86,-12.75,797,781,784,395,872,33.333333333333336,-0.166,-0.437,-0.879
199477,1755607589212,10.45,-154.07,-12.71,799,778,782,342,878,34.48275862068966,-0.167,-0.438,-0.873
199507,1755607589242,11.42,-154.42,-12.63,795,772,785,290,874,33.333333333333336,-0.159,-0.441,-0.871
199536,1755607589272,12.37,-154.59,-12.46,791,774,785,335,879,34.48275862068966,-0.149,-0.444,-0.884
199566,1755607589301,12.83,-154.5,-12.15,797,774,783,384,877,33.333333333333336,-0.13,-0.436,-0.899
199596,1755607589331,13.01,-154.56,-12.02,793,777,786,318,879,33.333333333333336,-0.106,-0.426,-0.9
199625,1755607589361,13.05,-154.71,-11.97,800,778,783,314,876,34.48275862068966,-0.097,-0.418,-0.896
199655,1755607589390,13.19,-154.8,-12.0,794,782,787,350,876,33.333333333333336,-0.087,-0.413,-0.898
199684,1755607589420,13.23,-154.89,-12.04,797,775,786,368,872,34.48275862068966,-0.077,-0.41,-0.901
199714,1755607589449,13.17,-155.01,-12.19,791,771,784,375,881,33.333333333333336,-0.059,-0.405,-0.906
199744,1755607589479,12.91,-155.11,-12.42,798,778,786,316,879,33.333333333333336,-0.053,-0.405,-0.909
199773,1755607589508,12.41,-155.1,-12.59,794,775,782,305,871,34.48275862068966,-0.057,-0.405,-0.91
199803,1755607589538,11.95,-155.04,-12.76,793,775,787,381,875,33.333333333333336,-0.062,-0.407,-0.911
199832,1755607589568,11.57,-154.99,-12.88,793,775,784,405,874,34.48275862068966,-0.07,-0.41,-0.91
199862,1755607589597,11.28,-155.03,-12.94,796,783,780,328,883,33.333333333333336,-0.075,-0.412,-0.906
199921,1755607589656,10.86,-155.05,-12.96,796,780,784,369,877,33.333333333333336,-0.076,-0.413,-0.906
200009,1755607589745,10.34,-155.18,-13.02,795,780,786,325,876,34.48275862068966,-0.075,-0.41,-0.905
200039,1755607589774,10.14,-155.17,-13.03,794,775,784,340,886,33.333333333333336,-0.074,-0.408,-0.907
200069,1755607589804,9.92,-155.22,-13.08,796,781,780,395,882,33.333333333333336,-0.074,-0.409,-0.908
200098,1755607589834,9.7,-155.28,-13.09,789,778,782,420,878,34.48275862068966,-0.076,-0.41,-0.907
200128,1755607589863,9.51,-155.31,-13.08,798,780,780,351,879,33.333333333333336,-0.075,-0.409,-0.907
200158,1755607589893,9.33,-155.34,-13.13,792,776,786,338,879,33.333333333333336,-0.074,-0.407,-0.908
200187,1755607589923,9.15,-155.37,-13.16,795,782,786,381,874,34.48275862068966,-0.075,-0.405,-0.908
200247,1755607589982,8.83,-155.52,-13.28,794,770,783,400,878,33.333333333333336,-0.078,-0.406,-0.908
200276,1755607590012,8.69,-155.51,-13.31,797,777,785,330,874,34.48275862068966,-0.079,-0.405,-0.909
200306,1755607590041,8.53,-155.57,-13.33,798,776,781,338,892,33.333333333333336,-0.081,-0.405,-0.911
200336,1755607590071,8.35,-155.69,-13.39,792,775,783,390,885,33.333333333333336,-0.08,-0.405,-0.914
200365,1755607590100,8.2,-155.84,-13.43,794,782,787,416,879,34.48275862068966,-0.08,-0.404,-0.911
200395,1755607590130,8.11,-155.89,-13.45,797,776,788,361,868,33.333333333333336,-0.083,-0.402,-0.906
200424,1755607590160,8.05,-155.88,-13.47,797,774,785,321,879,34.48275862068966,-0.081,-0.4,-0.908
200454,1755607590189,7.95,-155.87,-13.46,797,773,789,370,876,33.333333333333336,-0.083,-0.399,-0.911
200484,1755607590219,7.85,-155.9,-13.47,790,776,785,406,884,33.333333333333336,-0.083,-0.397,-0.913
200513,1755607590248,7.7,-155.92,-13.47,800,774,782,348,877,34.48275862068966,-0.083,-0.396,-0.911
200542,1755607590278,7.57,-155.89,-13.48,796,774,784,311,877,34.48275862068966,-0.083,-0.396,-0.911
200572,1755607590307,7.44,-155.86,-13.5,795,769,781,347,874,33.333333333333336,-0.084,-0.397,-0.91
200601,1755607590337,7.34,-155.85,-13.52,799,778,786,412,874,34.48275862068966,-0.084,-0.398,-0.91
200631,1755607590367,7.26,-155.85,-13.54,797,774,782,409,876,33.333333333333336,-0.088,-0.398,-0.909
200661,1755607590396,7.23,-155.81,-13.53,797,780,783,346,874,33.333333333333336,-0.091,-0.399,-0.909
200691,1755607590426,7.19,-155.78,-13.48,793,776,778,333,881,33.333333333333336,-0.091,-0.398,-0.91
200720,1755607590456,7.14,-155.78,-13.46,797,778,787,393,874,34.48275862068966,-0.091,-0.397,-0.911
200750,1755607590485,7.09,-155.81,-13.46,796,777,786,430,870,33.333333333333336,-0.091,-0.396,-0.91
200780,1755607590515,7.05,-155.8,-13.44,794,779,782,389,877,33.333333333333336,-0.092,-0.397,-0.909
200809,1755607590544,7.03,-155.76,-13.42,796,775,784,336,875,34.48275862068966,-0.093,-0.398,-0.91
200839,1755607590574,6.98,-155.75,-13.41,791,780,782,361,873,33.333333333333336,-0.09,-0.396,-0.911
200868,1755607590603,6.91,-155.76,-13.43,792,776,779,425,875,34.48275862068966,-0.088,-0.397,-0.91
200897,1755607590632,6.9,-155.78,-13.47,795,778,786,420,885,34.48275862068966,-0.091,-0.398,-0.909
200927,1755607590662,6.9,-155.76,-13.46,793,777,777,342,879,33.333333333333336,-0.092,-0.398,-0.909
200956,1755607590691,6.86,-155.75,-13.45,798,776,782,334,885,34.48275862068966,-0.092,-0.399,-0.912
200986,1755607590721,6.82,-155.81,-13.46,797,781,785,395,872,33.333333333333336,-0.092,-0.399,-0.911
201015,1755607590751,6.82,-155.85,-13.46,793,778,786,417,881,34.48275862068966,-0.092,-0.399,-0.909
201045,1755607590780,6.83,-155.85,-13.43,791,777,787,367,876,33.333333333333336,-0.093,-0.4,-0.908
201074,1755607590810,6.84,-155.85,-13.4,797,775,782,294,879,34.48275862068966,-0.092,-0.4,-0.91
201104,1755607590839,6.85,-155.9,-13.39,795,780,777,348,878,33.333333333333336,-0.089,-0.399,-0.911
201134,1755607590869,6.85,-155.94,-13.36,798,776,785,413,875,33.333333333333336,-0.088,-0.399,-0.909
201163,1755607590898,6.86,-155.92,-13.34,797,779,785,401,880,34.48275862068966,-0.087,-0.398,-0.908
201193,1755607590929,6.85,-155.91,-13.32,796,775,784,348,888,33.333333333333336,-0.087,-0.397,-0.909
201213,1755607590948,6.83,-155.91,-13.31,799,779,787,422,876,50.0,-0.088,-0.397,-0.911
201243,1755607590978,6.85,-155.96,-13.28,796,776,779,306,875,33.333333333333336,-0.088,-0.398,-0.912
201272,1755607591008,6.85,-155.97,-13.24,795,768,785,289,877,34.48275862068966,-0.087,-0.396,-0.911
201302,1755607591037,6.82,-155.97,-13.26,791,773,785,382,878,33.333333333333336,-0.082,-0.394,-0.912
201331,1755607591067,6.74,-155.99,-13.31,792,773,777,388,877,34.48275862068966,-0.079,-0.394,-0.915
201361,1755607591096,6.61,-156.02,-13.37,796,769,788,341,875,33.333333333333336,-0.083,-0.396,-0.914
201391,1755607591126,6.52,-155.99,-13.38,794,776,784,326,883,33.333333333333336,-0.087,-0.397,-0.91
201420,1755607591156,6.46,-155.93,-13.33,793,775,789,361,881,34.48275862068966,-0.089,-0.398,-0.91
201450,1755607591185,6.41,-155.9,-13.3,795,776,783,411,879,33.333333333333336,-0.087,-0.398,-0.911
201479,1755607591214,6.37,-155.91,-13.29,792,775,786,361,877,34.48275862068966,-0.085,-0.398,-0.911
201509,1755607591244,6.35,-155.92,-13.3,794,772,787,330,880,33.333333333333336,-0.084,-0.398,-0.911
201538,1755607591274,6.31,-155.92,-13.29,795,774,786,348,878,34.48275862068966,-0.087,-0.398,-0.91
201598,1755607591333,6.25,-155.87,-13.24,797,780,787,404,876,33.333333333333336,-0.087,-0.396,-0.912
201627,1755607591362,6.18,-155.84,-13.24,796,781,788,356,876,34.48275862068966,-0.084,-0.395,-0.911
201657,1755607591392,6.09,-155.82,-13.29,794,770,782,294,874,33.333333333333336,-0.082,-0.395,-0.911
201686,1755607591421,6.03,-155.84,-13.35,794,779,785,373,872,34.48275862068966,-0.085,-0.398,-0.912
201716,1755607591452,5.99,-155.84,-13.34,796,776,782,408,878,33.333333333333336,-0.089,-0.401,-0.91
201745,1755607591481,5.99,-155.83,-13.31,796,769,783,361,879,34.48275862068966,-0.091,-0.4,-0.91
201775,1755607591510,5.96,-155.84,-13.28,795,778,785,335,880,33.333333333333336,-0.088,-0.401,-0.91
201805,1755607591540,5.94,-155.84,-13.26,790,776,788,350,876,33.333333333333336,-0.087,-0.401,-0.91
201834,1755607591569,5.9,-155.83,-13.25,795,781,783,409,879,34.48275862068966,-0.087,-0.399,-0.911
201864,1755607591599,5.85,-155.82,-13.23,793,775,781,408,879,33.333333333333336,-0.087,-0.399,-0.91
