timestamp_ms,recv_timestamp_ms,pitch,roll,yaw,flex1,flex2,flex3,flex4,flex5,sampling_hz,accel_x,accel_y,accel_z
99245,1755606692011,62.3,-27.44,-3.72,794,777,835,412,864,34.48275862068966,-0.892,-0.213,0.41
99275,1755606692014,62.3,-27.43,-3.71,797,769,836,409,865,33.333333333333336,-0.891,-0.213,0.41
99304,1755606692015,62.3,-27.42,-3.71,798,768,840,344,868,34.48275862068966,-0.89,-0.212,0.409
99334,1755606692017,62.27,-27.41,-3.72,798,768,837,359,865,33.333333333333336,-0.89,-0.212,0.409
99413,1755606692023,62.3,-27.39,-3.7,799,773,834,409,865,34.48275862068966,-0.892,-0.214,0.411
99443,1755606692025,62.29,-27.39,-3.69,803,776,840,406,868,33.333333333333336,-0.89,-0.213,0.41
99472,1755606692027,62.28,-27.38,-3.69,796,777,841,363,865,34.48275862068966,-0.891,-0.212,0.411
99502,1755606692029,62.29,-27.38,-3.68,795,775,839,347,869,33.333333333333336,-0.891,-0.212,0.411
99531,1755606692031,62.3,-27.36,-3.67,800,774,834,387,860,34.48275862068966,-0.891,-0.211,0.411
99561,1755606692033,62.29,-27.33,-3.68,801,776,838,410,866,33.333333333333336,-0.889,-0.211,0.411
99582,1755606692035,62.29,-27.32,-3.7,799,767,837,361,864,47.61904761904762,-0.889,-0.211,0.41
99612,1755606692037,62.29,-27.33,-3.7,801,772,838,416,868,33.333333333333336,-0.892,-0.213,0.41
99641,1755606692039,62.3,-27.34,-3.68,800,771,839,398,863,34.48275862068966,-0.893,-0.215,0.41
99671,1755606692041,62.31,-27.35,-3.65,796,770,832,352,866,33.333333333333336,-0.891,-0.214,0.41
99700,1755606692043,62.29,-27.35,-3.62,795,773,839,363,867,34.48275862068966,-0.89,-0.213,0.411
99730,1755606692045,62.3,-27.39,-3.6,795,776,837,401,868,33.333333333333336,-0.891,-0.212,0.411
99760,1755606692047,62.29,-27.37,-3.57,800,771,838,406,866,33.333333333333336,-0.892,-0.213,0.412
99789,1755606692049,62.33,-27.37,-3.55,796,774,838,362,866,34.48275862068966,-0.891,-0.213,0.411
99819,1755606692052,62.32,-27.37,-3.52,795,767,842,352,869,33.333333333333336,-0.89,-0.211,0.411
99849,1755606692054,62.32,-27.37,-3.5,798,773,840,382,874,33.333333333333336,-0.89,-0.21,0.411
99879,1755606692055,62.31,-27.36,-3.5,800,779,833,402,867,33.333333333333336,-0.89,-0.209,0.411
99908,1755606692057,62.29,-27.34,-3.5,799,774,837,394,863,34.48275862068966,-0.89,-0.209,0.41
99938,1755606692059,62.28,-27.34,-3.52,799,774,834,313,859,33.333333333333336,-0.889,-0.209,0.41
99968,1755606692061,62.27,-27.34,-3.53,800,774,835,333,867,33.333333333333336,-0.89,-0.209,0.411
99997,1755606692063,62.26,-27.33,-3.53,798,774,839,379,863,34.48275862068966,-0.891,-0.21,0.412
100027,1755606692065,62.27,-27.31,-3.52,799,778,839,404,863,33.333333333333336,-0.892,-0.212,0.412
100056,1755606692067,62.27,-27.32,-3.5,799,777,835,359,865,34.48275862068966,-0.891,-0.212,0.411
100085,1755606692070,62.28,-27.32,-3.49,796,780,839,342,867,34.48275862068966,-0.891,-0.211,0.411
100135,1755606692074,62.27,-27.33,-3.48,794,769,841,373,863,50.0,-0.891,-0.21,0.41
100165,1755606692076,62.27,-27.33,-3.47,795,779,835,403,866,33.333333333333336,-0.891,-0.21,0.41
100195,1755606692077,62.27,-27.31,-3.48,801,775,838,403,866,33.333333333333336,-0.891,-0.21,0.411
100224,1755606692079,62.27,-27.3,-3.48,797,773,840,387,867,34.48275862068966,-0.891,-0.21,0.411
100254,1755606692082,62.26,-27.3,-3.48,800,779,833,339,865,33.333333333333336,-0.891,-0.211,0.411
100283,1755606692084,62.27,-27.28,-3.48,799,773,836,364,866,34.48275862068966,-0.891,-0.211,0.412
100313,1755606692086,62.29,-27.27,-3.48,794,778,842,391,868,33.333333333333336,-0.892,-0.212,0.411
100342,1755606692088,62.28,-27.25,-3.45,798,774,831,402,866,34.48275862068966,-0.892,-0.212,0.411
100372,1755606692090,62.28,-27.23,-3.44,798,773,831,355,861,33.333333333333336,-0.891,-0.212,0.41
100402,1755606692092,62.28,-27.23,-3.42,794,777,836,345,867,33.333333333333336,-0.892,-0.212,0.41
100431,1755606692094,62.27,-27.23,-3.41,797,779,839,387,861,34.48275862068966,-0.89,-0.21,0.409
100491,1755606692098,62.27,-27.24,-3.42,795,774,833,392,867,33.333333333333336,-0.892,-0.211,0.409
100511,1755606692101,62.26,-27.23,-3.42,800,778,840,415,861,50.0,-0.891,-0.212,0.409
100541,1755606692103,62.29,-27.26,-3.41,798,774,835,340,866,33.333333333333336,-0.894,-0.213,0.411
100570,1755606692105,62.27,-27.25,-3.39,798,773,840,314,867,34.48275862068966,-0.893,-0.213,0.411
100600,1755606692107,62.29,-27.25,-3.37,799,775,841,344,866,33.333333333333336,-0.892,-0.212,0.412
100630,1755606692109,62.31,-27.26,-3.35,794,774,838,392,867,33.333333333333336,-0.892,-0.211,0.411
100659,1755606692111,62.3,-27.25,-3.35,801,774,837,401,874,34.48275862068966,-0.893,-0.209,0.41
100689,1755606692113,62.31,-27.25,-3.35,796,774,836,349,866,33.333333333333336,-0.893,-0.209,0.409
100718,1755606692115,62.28,-27.24,-3.35,797,772,836,343,862,34.48275862068966,-0.893,-0.209,0.409
100748,1755606692144,62.31,-27.29,-3.36,798,774,840,332,869,33.333333333333336,-0.894,-0.21,0.41
100778,1755606692173,62.31,-27.3,-3.35,797,771,834,400,865,33.333333333333336,-0.893,-0.211,0.41
100807,1755606692203,62.29,-27.28,-3.34,798,771,839,333,866,34.48275862068966,-0.894,-0.211,0.411
100837,1755606692233,62.31,-27.26,-3.34,800,777,837,321,869,33.333333333333336,-0.892,-0.209,0.411
100867,1755606692262,62.3,-27.24,-3.33,796,775,837,344,860,33.333333333333336,-0.89,-0.209,0.411
100896,1755606692292,62.3,-27.25,-3.36,798,767,839,396,868,34.48275862068966,-0.89,-0.21,0.411
100926,1755606692321,62.28,-27.25,-3.37,799,780,835,411,867,33.333333333333336,-0.89,-0.211,0.411
100956,1755606692351,62.29,-27.24,-3.36,804,769,838,366,871,33.333333333333336,-0.893,-0.212,0.411
100985,1755606692381,62.33,-27.24,-3.35,800,778,839,339,866,34.48275862068966,-0.892,-0.211,0.411
101015,1755606692410,62.32,-27.24,-3.35,800,771,838,384,865,33.333333333333336,-0.891,-0.211,0.411
101074,1755606692470,62.31,-27.23,-3.36,800,772,831,392,868,33.333333333333336,-0.891,-0.211,0.411
101104,1755606692499,62.31,-27.2,-3.36,800,770,837,364,869,33.333333333333336,-0.892,-0.211,0.411
101133,1755606692529,62.33,-27.21,-3.37,799,772,839,357,868,34.48275862068966,-0.891,-0.212,0.41
101163,1755606692559,62.31,-27.22,-3.36,795,776,841,417,864,33.333333333333336,-0.891,-0.213,0.41
101193,1755606692588,62.31,-27.24,-3.35,797,777,838,414,867,33.333333333333336,-0.892,-0.212,0.41
101222,1755606692618,62.32,-27.24,-3.35,799,773,837,370,870,34.48275862068966,-0.893,-0.212,0.411
101252,1755606692647,62.32,-27.22,-3.34,801,774,836,349,862,33.333333333333336,-0.891,-0.211,0.411
101282,1755606692677,62.32,-27.21,-3.35,800,776,834,378,862,33.333333333333336,-0.892,-0.211,0.412
101340,1755606692736,62.34,-27.21,-3.34,798,779,842,370,863,34.48275862068966,-0.893,-0.213,0.41
101370,1755606692765,62.34,-27.21,-3.34,800,776,836,349,865,33.333333333333336,-0.892,-0.213,0.409
101400,1755606692795,62.35,-27.21,-3.33,797,772,840,360,867,33.333333333333336,-0.892,-0.212,0.409
101429,1755606692825,62.34,-27.22,-3.33,797,774,839,422,865,34.48275862068966,-0.892,-0.212,0.409
101518,1755606692914,62.37,-27.25,-3.3,794,779,839,360,864,34.48275862068966,-0.893,-0.213,0.41
101548,1755606692944,62.35,-27.25,-3.29,800,774,839,399,868,33.333333333333336,-0.893,-0.212,0.409
101578,1755606692973,62.36,-27.26,-3.29,796,778,831,409,869,33.333333333333336,-0.893,-0.212,0.41
101608,1755606693003,62.34,-27.25,-3.28,796,775,837,386,865,33.333333333333336,-0.892,-0.212,0.409
101637,1755606693033,62.32,-27.25,-3.25,798,775,840,348,866,34.48275862068966,-0.893,-0.213,0.41
101667,1755606693062,62.34,-27.27,-3.24,800,773,838,360,869,33.333333333333336,-0.893,-0.213,0.41
101696,1755606693092,62.33,-27.26,-3.21,801,778,836,405,864,34.48275862068966,-0.893,-0.212,0.41
101726,1755606693121,62.35,-27.25,-3.19,796,773,834,393,865,33.333333333333336,-0.893,-0.212,0.411
101785,1755606693180,62.37,-27.23,-3.16,797,773,842,340,864,33.333333333333336,-0.891,-0.211,0.41
101815,1755606693210,62.37,-27.23,-3.16,800,772,832,386,866,33.333333333333336,-0.89,-0.209,0.409
101844,1755606693240,62.37,-27.22,-3.17,801,775,835,422,868,34.48275862068966,-0.891,-0.209,0.408
101874,1755606693269,62.33,-27.22,-3.18,794,772,843,372,864,33.333333333333336,-0.891,-0.21,0.408
101904,1755606693299,62.35,-27.23,-3.18,793,776,841,342,867,33.333333333333336,-0.892,-0.211,0.409
101933,1755606693328,62.35,-27.21,-3.15,796,778,832,372,874,34.48275862068966,-0.892,-0.212,0.41
101963,1755606693358,62.38,-27.21,-3.16,794,767,835,409,867,33.333333333333336,-0.892,-0.211,0.409
101992,1755606693387,62.39,-27.19,-3.16,797,769,841,399,869,34.48275862068966,-0.891,-0.211,0.408
102022,1755606693417,62.39,-27.2,-3.17,803,771,839,341,866,33.333333333333336,-0.892,-0.211,0.407
102052,1755606693447,62.39,-27.23,-3.17,798,774,836,337,865,33.333333333333336,-0.893,-0.213,0.406
102081,1755606693477,62.39,-27.24,-3.16,794,776,839,384,867,34.48275862068966,-0.893,-0.212,0.407
102111,1755606693506,62.4,-27.23,-3.15,799,775,834,408,863,33.333333333333336,-0.892,-0.211,0.408
102170,1755606693566,62.41,-27.24,-3.17,793,773,834,340,869,33.333333333333336,-0.891,-0.21,0.408
102200,1755606693595,62.39,-27.24,-3.18,800,770,840,356,864,33.333333333333336,-0.892,-0.21,0.407
102229,1755606693625,62.38,-27.24,-3.18,797,778,837,409,866,34.48275862068966,-0.893,-0.211,0.407
102288,1755606693684,62.39,-27.25,-3.19,798,775,837,345,862,34.48275862068966,-0.891,-0.211,0.407
102318,1755606693713,62.39,-27.23,-3.21,796,774,832,354,866,33.333333333333336,-0.891,-0.211,0.408
102348,1755606693743,62.4,-27.19,-3.21,800,779,843,388,865,33.333333333333336,-0.893,-0.213,0.408
102377,1755606693773,62.42,-27.18,-3.21,799,778,838,415,869,34.48275862068966,-0.894,-0.214,0.407
102407,1755606693802,62.41,-27.17,-3.19,793,773,837,366,867,33.333333333333336,-0.893,-0.214,0.405
102466,1755606693862,62.39,-27.22,-3.17,798,773,839,363,859,33.333333333333336,-0.893,-0.213,0.407
102496,1755606693891,62.4,-27.2,-3.16,796,782,839,395,871,33.333333333333336,-0.893,-0.212,0.407
102526,1755606693921,62.41,-27.2,-3.15,797,779,840,406,866,33.333333333333336,-0.892,-0.212,0.407
102555,1755606693951,62.4,-27.23,-3.14,797,780,833,340,871,34.48275862068966,-0.891,-0.212,0.406
102585,1755606693980,62.38,-27.26,-3.14,798,777,836,349,869,33.333333333333336,-0.891,-0.212,0.407
102614,1755606694010,62.39,-27.26,-3.12,797,779,836,387,868,34.48275862068966,-0.892,-0.213,0.408
102644,1755606694040,62.4,-27.25,-3.1,799,771,845,398,868,33.333333333333336,-0.892,-0.212,0.408
102703,1755606694099,62.39,-27.24,-3.1,795,775,838,343,866,34.48275862068966,-0.891,-0.212,0.406
102733,1755606694128,62.37,-27.25,-3.09,799,773,835,352,867,33.333333333333336,-0.892,-0.212,0.406
102762,1755606694158,62.39,-27.27,-3.09,795,774,840,416,863,34.48275862068966,-0.893,-0.213,0.406
102792,1755606694188,62.38,-27.26,-3.08,796,776,831,406,864,33.333333333333336,-0.89,-0.211,0.406
102822,1755606694218,62.39,-27.28,-3.11,798,771,836,349,863,33.333333333333336,-0.891,-0.21,0.406
102852,1755606694248,62.38,-27.27,-3.12,795,775,844,342,861,33.333333333333336,-0.892,-0.211,0.407
102882,1755606694277,62.39,-27.27,-3.12,795,773,837,394,868,33.333333333333336,-0.893,-0.213,0.407
102912,1755606694307,62.4,-27.28,-3.11,797,774,837,406,867,33.333333333333336,-0.893,-0.214,0.407
102941,1755606694337,62.39,-27.31,-3.1,797,773,843,386,866,34.48275862068966,-0.89,-0.213,0.405
102971,1755606694366,62.38,-27.32,-3.1,798,775,836,340,870,33.333333333333336,-0.891,-0.212,0.406
103001,1755606694396,62.39,-27.33,-3.12,798,773,840,356,866,33.333333333333336,-0.892,-0.214,0.407
103030,1755606694426,62.42,-27.33,-3.11,795,778,838,422,868,34.48275862068966,-0.894,-0.217,0.407
103060,1755606694455,62.44,-27.32,-3.07,799,774,844,422,866,33.333333333333336,-0.894,-0.219,0.407
103090,1755606694485,62.4,-27.31,-2.98,798,775,833,361,863,33.333333333333336,-0.895,-0.218,0.407
103119,1755606694515,62.36,-27.28,-2.9,798,768,837,295,863,34.48275862068966,-0.893,-0.213,0.407
103149,1755606694544,62.31,-27.24,-2.87,795,771,839,355,860,33.333333333333336,-0.888,-0.207,0.407
103178,1755606694573,62.28,-27.24,-2.92,802,775,836,359,868,34.48275862068966,-0.887,-0.206,0.408
103208,1755606694603,62.23,-27.23,-2.97,796,777,839,319,865,33.333333333333336,-0.89,-0.209,0.408
103237,1755606694633,62.22,-27.25,-3.0,796,778,839,310,867,34.48275862068966,-0.891,-0.212,0.408
103267,1755606694662,62.24,-27.3,-3.0,800,774,839,359,867,33.333333333333336,-0.892,-0.213,0.407
103296,1755606694691,62.25,-27.36,-3.01,797,774,837,422,866,34.48275862068966,-0.891,-0.214,0.406
103325,1755606694721,62.22,-27.4,-3.0,799,777,840,409,861,34.48275862068966,-0.891,-0.213,0.406
103355,1755606694750,62.2,-27.45,-2.99,794,780,836,358,870,33.333333333333336,-0.891,-0.213,0.408
103385,1755606694780,62.21,-27.47,-2.99,798,773,838,344,865,33.333333333333336,-0.891,-0.214,0.411
103414,1755606694810,62.22,-27.47,-2.97,798,769,837,398,868,34.48275862068966,-0.891,-0.215,0.413
103444,1755606694840,62.23,-27.45,-2.95,801,772,834,425,862,33.333333333333336,-0.891,-0.215,0.412
103503,1755606694899,62.22,-27.45,-2.91,801,773,835,358,863,34.48275862068966,-0.89,-0.212,0.41
103533,1755606694929,62.21,-27.46,-2.92,800,779,842,382,862,33.333333333333336,-0.889,-0.211,0.41
103563,1755606694958,62.18,-27.43,-2.92,793,772,835,422,870,33.333333333333336,-0.89,-0.21,0.41
103593,1755606694988,62.18,-27.42,-2.94,801,778,838,415,863,33.333333333333336,-0.89,-0.212,0.41
103622,1755606695017,62.17,-27.42,-2.95,800,779,838,366,864,34.48275862068966,-0.889,-0.214,0.41
103652,1755606695047,62.17,-27.43,-2.96,798,774,840,361,870,33.333333333333336,-0.889,-0.215,0.41
103682,1755606695077,62.18,-27.43,-2.95,799,768,835,408,860,33.333333333333336,-0.891,-0.215,0.412
103711,1755606695107,62.18,-27.41,-2.95,796,774,839,426,863,34.48275862068966,-0.889,-0.214,0.412
103770,1755606695166,62.19,-27.4,-2.97,795,775,835,355,866,34.48275862068966,-0.889,-0.214,0.411
103800,1755606695196,62.18,-27.4,-2.99,799,774,831,369,869,33.333333333333336,-0.89,-0.215,0.41
103830,1755606695225,62.16,-27.38,-2.99,800,779,833,403,868,33.333333333333336,-0.89,-0.215,0.41
103859,1755606695254,62.15,-27.38,-2.99,801,775,842,405,859,34.48275862068966,-0.891,-0.216,0.41
103889,1755606695284,62.16,-27.38,-2.99,798,779,840,353,872,33.333333333333336,-0.89,-0.216,0.41
103918,1755606695314,62.18,-27.38,-2.97,798,775,835,351,866,34.48275862068966,-0.891,-0.216,0.411
103948,1755606695343,62.17,-27.37,-2.95,797,774,836,393,865,33.333333333333336,-0.889,-0.216,0.411
104007,1755606695402,62.19,-27.4,-2.96,801,775,845,383,865,33.333333333333336,-0.89,-0.215,0.41
104036,1755606695432,62.2,-27.4,-2.95,794,771,838,334,864,34.48275862068966,-0.89,-0.215,0.41
104066,1755606695462,62.17,-27.38,-2.94,796,774,838,392,864,33.333333333333336,-0.889,-0.215,0.41
104096,1755606695491,62.17,-27.41,-2.93,798,777,838,402,868,33.333333333333336,-0.889,-0.215,0.41
104125,1755606695521,62.18,-27.42,-2.92,798,778,840,384,869,34.48275862068966,-0.889,-0.215,0.41
104155,1755606695551,62.19,-27.42,-2.93,799,780,833,340,865,33.333333333333336,-0.889,-0.215,0.41
104185,1755606695581,62.18,-27.44,-2.93,794,768,837,352,866,33.333333333333336,-0.89,-0.215,0.411
104215,1755606695610,62.18,-27.44,-2.92,799,778,839,391,866,33.333333333333336,-0.89,-0.217,0.412
104244,1755606695640,62.22,-27.44,-2.91,798,769,835,405,862,34.48275862068966,-0.89,-0.217,0.411
104274,1755606695670,62.22,-27.47,-2.88,793,773,834,363,865,33.333333333333336,-0.89,-0.217,0.41
104303,1755606695699,62.24,-27.5,-2.87,797,772,839,332,866,34.48275862068966,-0.889,-0.215,0.41
104333,1755606695728,62.21,-27.51,-2.86,799,767,840,371,866,33.333333333333336,-0.889,-0.214,0.41
104362,1755606695758,62.18,-27.51,-2.85,800,780,844,403,868,34.48275862068966,-0.89,-0.213,0.411
104481,1755606695876,62.15,-27.5,-2.84,800,775,839,397,868,33.333333333333336,-0.889,-0.215,0.413
104569,1755606695965,62.19,-27.46,-2.84,797,773,837,331,866,34.48275862068966,-0.889,-0.215,0.413
104629,1755606696025,62.19,-27.43,-2.87,799,774,839,412,863,33.333333333333336,-0.889,-0.215,0.412
104659,1755606696054,62.19,-27.44,-2.88,796,776,837,410,868,33.333333333333336,-0.889,-0.215,0.411
104688,1755606696084,62.2,-27.45,-2.89,798,774,839,346,861,34.48275862068966,-0.89,-0.216,0.411
104718,1755606696113,62.17,-27.46,-2.89,798,773,837,357,864,33.333333333333336,-0.889,-0.215,0.411
104747,1755606696143,62.14,-27.44,-2.89,797,779,839,400,864,34.48275862068966,-0.889,-0.215,0.412
104777,1755606696173,62.14,-27.44,-2.89,804,770,837,403,865,33.333333333333336,-0.89,-0.216,0.414
104807,1755606696203,62.16,-27.43,-2.89,793,775,838,365,864,33.333333333333336,-0.89,-0.218,0.413
104827,1755606696222,61.86,-27.43,-2.88,801,773,836,420,868,50.0,-0.89,-0.218,0.412
104856,1755606696251,61.87,-27.43,-2.87,793,780,832,327,872,34.48275862068966,-0.89,-0.217,0.412
104886,1755606696281,61.87,-27.44,-2.87,800,774,839,336,862,33.333333333333336,-0.889,-0.217,0.411
104915,1755606696311,61.89,-27.45,-2.88,800,775,840,380,867,34.48275862068966,-0.89,-0.217,0.413
104945,1755606696340,61.89,-27.43,-2.85,798,771,838,402,868,33.333333333333336,-0.891,-0.217,0.413
104974,1755606696370,61.91,-27.43,-2.84,799,770,840,366,861,34.48275862068966,-0.89,-0.217,0.413
105004,1755606696399,61.9,-27.42,-2.81,799,773,834,346,862,33.333333333333336,-0.89,-0.216,0.413
105033,1755606696429,61.95,-27.44,-2.82,799,780,833,373,873,34.48275862068966,-0.89,-0.216,0.412
105063,1755606696458,61.95,-27.42,-2.8,798,776,842,422,868,33.333333333333336,-0.89,-0.215,0.411
105092,1755606696488,61.95,-27.42,-2.79,804,779,836,364,862,34.48275862068966,-0.888,-0.214,0.41
105122,1755606696517,61.94,-27.45,-2.81,799,778,838,334,868,33.333333333333336,-0.889,-0.215,0.41
105151,1755606696547,61.95,-27.45,-2.82,797,776,836,326,865,34.48275862068966,-0.891,-0.217,0.41
105181,1755606696576,61.98,-27.46,-2.82,799,778,834,398,862,33.333333333333336,-0.891,-0.218,0.41
105210,1755606696606,61.97,-27.47,-2.79,796,777,840,420,868,34.48275862068966,-0.891,-0.219,0.41
105240,1755606696636,61.98,-27.5,-2.76,799,774,838,382,863,33.333333333333336,-0.89,-0.217,0.41
105270,1755606696665,62.0,-27.52,-2.75,794,773,839,337,865,33.333333333333336,-0.89,-0.214,0.411
105329,1755606696724,61.98,-27.49,-2.76,797,776,836,418,863,34.48275862068966,-0.89,-0.214,0.41
105358,1755606696754,62.0,-27.5,-2.75,799,774,833,386,860,34.48275862068966,-0.891,-0.216,0.409
105388,1755606696783,61.98,-27.52,-2.73,793,775,838,341,868,33.333333333333336,-0.889,-0.216,0.409
105418,1755606696813,61.98,-27.53,-2.72,798,776,835,346,868,33.333333333333336,-0.89,-0.216,0.411
105477,1755606696872,62.02,-27.5,-2.71,803,776,833,385,867,33.333333333333336,-0.89,-0.215,0.412
105506,1755606696902,62.04,-27.48,-2.71,796,771,831,363,868,34.48275862068966,-0.889,-0.215,0.41
105536,1755606696932,62.05,-27.51,-2.7,798,777,837,328,866,33.333333333333336,-0.89,-0.216,0.408
105586,1755606696982,62.07,-27.55,-2.69,799,769,835,361,867,33.333333333333336,-0.891,-0.215,0.408
105645,1755606697041,62.04,-27.54,-2.7,801,778,835,426,869,34.48275862068966,-0.891,-0.215,0.409
105675,1755606697070,62.02,-27.53,-2.7,800,773,835,405,867,33.333333333333336,-0.891,-0.217,0.409
105704,1755606697100,62.03,-27.52,-2.68,798,774,838,337,866,34.48275862068966,-0.891,-0.218,0.409
105734,1755606697129,62.07,-27.55,-2.67,793,773,837,368,870,33.333333333333336,-0.89,-0.218,0.409
105763,1755606697159,62.06,-27.55,-2.66,796,773,843,420,869,34.48275862068966,-0.889,-0.216,0.408
105793,1755606697188,62.09,-27.56,-2.68,794,776,840,431,867,33.333333333333336,-0.89,-0.215,0.408
105823,1755606697218,62.08,-27.54,-2.68,799,771,838,367,861,33.333333333333336,-0.89,-0.214,0.408
105882,1755606697278,62.09,-27.56,-2.69,800,779,836,377,860,33.333333333333336,-0.89,-0.216,0.408
105912,1755606697308,62.08,-27.56,-2.69,793,774,839,405,866,33.333333333333336,-0.89,-0.216,0.408
105942,1755606697337,62.08,-27.56,-2.68,799,781,836,380,863,33.333333333333336,-0.89,-0.216,0.408
105971,1755606697366,62.08,-27.58,-2.67,798,769,837,344,867,34.48275862068966,-0.891,-0.216,0.408
106000,1755606697396,62.08,-27.57,-2.66,796,774,834,360,867,34.48275862068966,-0.891,-0.216,0.409
106030,1755606697426,62.08,-27.57,-2.67,797,769,837,404,864,33.333333333333336,-0.888,-0.215,0.409
106060,1755606697455,62.07,-27.59,-2.68,797,774,838,406,868,33.333333333333336,-0.89,-0.216,0.409
106089,1755606697485,62.07,-27.59,-2.67,797,775,841,369,873,34.48275862068966,-0.891,-0.217,0.409
106119,1755606697515,62.06,-27.6,-2.66,798,773,838,361,867,33.333333333333336,-0.89,-0.217,0.408
106149,1755606697544,62.04,-27.6,-2.65,798,770,837,402,862,33.333333333333336,-0.889,-0.218,0.409
106178,1755606697574,62.06,-27.62,-2.65,800,777,840,381,866,34.48275862068966,-0.891,-0.217,0.41
106208,1755606697604,62.06,-27.63,-2.64,797,779,840,374,865,33.333333333333336,-0.89,-0.217,0.41
106238,1755606697633,62.07,-27.62,-2.62,798,773,835,329,861,33.333333333333336,-0.891,-0.216,0.411
106267,1755606697663,62.07,-27.62,-2.62,797,780,837,357,861,34.48275862068966,-0.889,-0.216,0.409
106297,1755606697692,62.05,-27.64,-2.63,797,777,837,411,866,33.333333333333336,-0.889,-0.216,0.409
106326,1755606697722,62.04,-27.66,-2.63,798,775,837,437,866,34.48275862068966,-0.89,-0.217,0.41
106356,1755606697751,62.03,-27.66,-2.61,797,777,833,370,868,33.333333333333336,-0.89,-0.218,0.41
106385,1755606697781,62.06,-27.67,-2.61,801,776,834,354,869,34.48275862068966,-0.89,-0.219,0.41
106415,1755606697810,62.07,-27.7,-2.61,798,775,836,392,867,33.333333333333336,-0.89,-0.22,0.41
106474,1755606697870,62.12,-27.72,-2.58,798,772,835,378,868,33.333333333333336,-0.89,-0.219,0.41
106504,1755606697899,62.14,-27.73,-2.56,799,768,840,340,867,33.333333333333336,-0.889,-0.216,0.41
106533,1755606697929,62.13,-27.73,-2.57,800,776,837,370,869,34.48275862068966,-0.888,-0.215,0.41
106563,1755606697959,62.13,-27.72,-2.58,799,772,836,407,866,33.333333333333336,-0.889,-0.214,0.409
106593,1755606697988,62.12,-27.73,-2.59,796,777,834,408,869,33.333333333333336,-0.89,-0.215,0.409
106622,1755606698018,62.1,-27.74,-2.6,794,775,837,368,862,34.48275862068966,-0.89,-0.216,0.408
106652,1755606698048,62.08,-27.74,-2.61,798,776,838,355,866,33.333333333333336,-0.89,-0.217,0.408
106682,1755606698078,62.06,-27.74,-2.6,798,777,834,407,868,33.333333333333336,-0.892,-0.218,0.41
106712,1755606698107,62.07,-27.73,-2.6,799,778,840,426,866,33.333333333333336,-0.89,-0.218,0.411
106741,1755606698137,62.08,-27.72,-2.6,794,773,832,399,866,34.48275862068966,-0.889,-0.218,0.411
106771,1755606698166,62.09,-27.73,-2.61,799,767,840,356,867,33.333333333333336,-0.89,-0.218,0.409
106800,1755606698196,62.08,-27.73,-2.62,794,775,842,380,863,34.48275862068966,-0.89,-0.219,0.408
106830,1755606698225,62.07,-27.74,-2.61,796,776,837,410,862,33.333333333333336,-0.891,-0.219,0.408
106859,1755606698255,62.06,-27.74,-2.58,799,778,835,397,866,34.48275862068966,-0.891,-0.219,0.409
106889,1755606698285,62.07,-27.75,-2.57,800,769,838,344,868,33.333333333333336,-0.889,-0.218,0.409
106918,1755606698314,62.08,-27.77,-2.58,798,779,838,328,863,34.48275862068966,-0.889,-0.218,0.41
106948,1755606698344,62.08,-27.76,-2.57,799,775,830,382,865,33.333333333333336,-0.891,-0.219,0.409
106978,1755606698373,62.1,-27.76,-2.56,795,769,840,414,860,33.333333333333336,-0.891,-0.22,0.408
107007,1755606698403,62.1,-27.78,-2.54,798,778,837,375,861,34.48275862068966,-0.89,-0.22,0.406
107036,1755606698432,62.09,-27.82,-2.52,796,777,837,343,864,34.48275862068966,-0.89,-0.22,0.407
107066,1755606698462,62.09,-27.84,-2.5,799,773,834,383,863,33.333333333333336,-0.89,-0.219,0.409
107096,1755606698491,62.1,-27.83,-2.49,794,777,834,409,867,33.333333333333336,-0.89,-0.218,0.41
107125,1755606698521,62.11,-27.81,-2.47,796,781,836,397,863,34.48275862068966,-0.89,-0.218,0.409
107155,1755606698550,62.12,-27.82,-2.45,798,779,841,341,861,33.333333333333336,-0.89,-0.218,0.408
107184,1755606698580,62.11,-27.83,-2.43,798,777,836,368,863,34.48275862068966,-0.89,-0.218,0.408
107214,1755606698610,62.09,-27.85,-2.41,797,774,840,404,869,33.333333333333336,-0.89,-0.218,0.408
107244,1755606698640,62.11,-27.86,-2.41,799,778,837,404,863,33.333333333333336,-0.891,-0.216,0.409
107274,1755606698669,62.1,-27.83,-2.4,800,774,833,381,871,33.333333333333336,-0.89,-0.215,0.409
107303,1755606698699,62.09,-27.81,-2.4,795,770,840,344,867,34.48275862068966,-0.89,-0.216,0.409
107333,1755606698728,62.1,-27.82,-2.41,793,775,837,386,866,33.333333333333336,-0.89,-0.218,0.409
107362,1755606698758,62.11,-27.8,-2.4,796,773,835,404,865,34.48275862068966,-0.891,-0.218,0.41
107392,1755606698787,62.12,-27.79,-2.39,798,772,832,407,868,33.333333333333336,-0.89,-0.218,0.409
107421,1755606698817,62.1,-27.79,-2.37,804,775,838,344,862,34.48275862068966,-0.89,-0.218,0.408
107451,1755606698847,62.1,-27.8,-2.37,798,771,831,348,865,33.333333333333336,-0.89,-0.217,0.408
107510,1755606698906,62.08,-27.75,-2.36,800,768,836,422,865,34.48275862068966,-0.89,-0.216,0.409
107540,1755606698935,62.07,-27.77,-2.37,793,773,844,363,864,33.333333333333336,-0.89,-0.217,0.409
107599,1755606698994,62.09,-27.79,-2.35,794,777,836,380,866,33.333333333333336,-0.89,-0.218,0.41
107628,1755606699024,62.11,-27.79,-2.35,800,778,839,414,868,34.48275862068966,-0.89,-0.217,0.41
107658,1755606699053,62.14,-27.79,-2.36,797,770,839,390,864,33.333333333333336,-0.89,-0.216,0.409
107746,1755606699143,62.05,-27.78,-2.36,797,775,837,393,865,34.48275862068966,-0.89,-0.217,0.414
107767,1755606699162,62.06,-27.78,-2.36,800,773,833,338,863,47.61904761904762,-0.891,-0.218,0.414
107796,1755606699192,62.05,-27.77,-2.36,796,776,844,405,868,34.48275862068966,-0.889,-0.217,0.413
107855,1755606699251,62.07,-27.77,-2.36,799,779,837,351,869,34.48275862068966,-0.891,-0.218,0.412
107885,1755606699281,62.08,-27.78,-2.36,799,774,837,357,864,33.333333333333336,-0.891,-0.217,0.41
107915,1755606699310,62.04,-27.78,-2.35,799,777,840,393,867,33.333333333333336,-0.89,-0.217,0.41
107944,1755606699340,62.05,-27.8,-2.36,797,776,840,405,866,34.48275862068966,-0.889,-0.218,0.41
107974,1755606699370,62.03,-27.82,-2.35,800,775,840,331,860,33.333333333333336,-0.89,-0.218,0.411
108004,1755606699399,62.03,-27.81,-2.34,799,779,839,330,869,33.333333333333336,-0.89,-0.217,0.412
108033,1755606699429,62.03,-27.79,-2.33,794,778,835,365,869,34.48275862068966,-0.889,-0.217,0.412
