timestamp_ms,recv_timestamp_ms,pitch,roll,yaw,flex1,flex2,flex3,flex4,flex5,sampling_hz,accel_x,accel_y,accel_z
142971,1755604436199,78.41,-43.23,-61.57,780,870,828,363,877,33.333333333333336,-0.989,-0.155,0.152
143001,1755604436202,78.44,-43.3,-61.55,784,860,830,438,875,33.333333333333336,-0.988,-0.156,0.151
143060,1755604436206,78.37,-43.43,-61.53,779,860,825,339,882,33.333333333333336,-0.982,-0.154,0.15
143089,1755604436208,78.38,-43.51,-61.54,782,868,822,326,879,34.48275862068966,-0.983,-0.153,0.15
143119,1755604436210,78.4,-43.57,-61.56,774,862,831,374,875,33.333333333333336,-0.981,-0.15,0.153
143148,1755604436212,78.33,-43.55,-61.58,784,864,838,408,874,34.48275862068966,-0.977,-0.147,0.157
143207,1755604436216,78.03,-43.27,-61.57,779,864,835,266,876,34.48275862068966,-0.984,-0.15,0.161
143227,1755604436218,77.92,-43.18,-61.53,778,861,835,369,879,50.0,-0.983,-0.154,0.158
143257,1755604436220,78.01,-43.12,-61.53,781,862,842,328,883,33.333333333333336,-0.983,-0.155,0.156
143286,1755604436222,78.01,-43.08,-61.52,781,863,836,366,875,34.48275862068966,-0.979,-0.153,0.159
143316,1755604436224,77.97,-43.02,-61.52,780,856,833,430,877,33.333333333333336,-0.977,-0.152,0.16
143345,1755604436226,77.92,-42.93,-61.5,783,858,838,402,877,34.48275862068966,-0.977,-0.149,0.159
143375,1755604436228,77.98,-42.88,-61.52,780,860,834,321,880,33.333333333333336,-0.981,-0.148,0.157
143404,1755604436230,77.93,-42.85,-61.53,777,864,830,341,874,34.48275862068966,-0.978,-0.148,0.156
143434,1755604436232,77.83,-42.82,-61.51,784,861,833,423,880,33.333333333333336,-0.98,-0.147,0.153
143464,1755604436234,77.53,-42.83,-61.43,782,861,822,414,874,33.333333333333336,-0.978,-0.147,0.157
143493,1755604436236,77.43,-42.86,-61.49,781,872,829,350,869,34.48275862068966,-0.978,-0.147,0.16
143523,1755604436239,77.35,-42.79,-61.54,779,867,832,337,875,33.333333333333336,-0.979,-0.148,0.164
143582,1755604436243,77.31,-42.75,-61.73,781,860,827,439,883,33.333333333333336,-0.975,-0.15,0.167
143641,1755604436247,77.23,-42.87,-61.78,781,859,824,345,876,34.48275862068966,-0.981,-0.156,0.162
143671,1755604436249,77.19,-42.97,-61.78,775,865,819,350,876,33.333333333333336,-0.981,-0.158,0.159
143701,1755604436251,77.23,-43.1,-61.78,781,864,826,404,884,33.333333333333336,-0.983,-0.159,0.16
143760,1755604436255,77.06,-43.21,-61.67,783,866,834,350,878,33.333333333333336,-0.983,-0.158,0.166
143789,1755604436257,77.0,-43.26,-61.57,778,864,836,334,877,34.48275862068966,-0.984,-0.159,0.173
143819,1755604436258,77.05,-43.27,-61.46,781,857,833,396,878,33.333333333333336,-0.984,-0.153,0.176
143878,1755604436263,77.0,-43.18,-61.42,785,856,826,390,883,33.333333333333336,-0.968,-0.141,0.181
143908,1755604436265,77.06,-43.13,-61.49,777,866,832,338,871,33.333333333333336,-0.978,-0.144,0.18
143937,1755604436267,77.03,-43.07,-61.47,783,860,840,357,881,34.48275862068966,-0.981,-0.145,0.179
143967,1755604436269,77.05,-42.98,-61.47,776,867,836,433,879,33.333333333333336,-0.977,-0.143,0.181
143996,1755604436271,77.09,-42.92,-61.52,785,862,827,424,875,34.48275862068966,-0.975,-0.14,0.179
144026,1755604436273,77.05,-42.85,-61.58,775,863,826,350,877,33.333333333333336,-0.973,-0.14,0.181
144055,1755604436275,77.06,-42.77,-61.64,784,865,833,361,874,34.48275862068966,-0.974,-0.144,0.18
144085,1755604436277,77.06,-42.7,-61.68,779,861,823,411,871,33.333333333333336,-0.979,-0.148,0.179
144115,1755604436279,77.15,-42.67,-61.68,781,863,835,425,871,33.333333333333336,-0.984,-0.151,0.177
144144,1755604436281,77.14,-42.6,-61.65,780,860,818,377,883,34.48275862068966,-0.979,-0.15,0.179
144174,1755604436283,77.15,-42.5,-61.66,785,866,836,339,881,33.333333333333336,-0.975,-0.148,0.178
144194,1755604436285,77.13,-42.42,-61.67,789,863,832,406,875,50.0,-0.977,-0.148,0.176
144224,1755604436287,77.18,-42.39,-61.69,785,859,817,353,873,33.333333333333336,-0.979,-0.15,0.177
144254,1755604436289,77.21,-42.32,-61.68,777,863,832,367,883,33.333333333333336,-0.979,-0.149,0.177
144283,1755604436291,77.25,-42.27,-61.7,777,861,828,420,874,34.48275862068966,-0.976,-0.15,0.176
144343,1755604436295,77.42,-42.19,-61.73,783,867,832,357,883,33.333333333333336,-0.979,-0.148,0.177
144372,1755604436312,77.42,-42.11,-61.73,779,868,831,331,878,34.48275862068966,-0.978,-0.147,0.176
144402,1755604436341,77.42,-42.02,-61.73,781,853,838,406,876,33.333333333333336,-0.978,-0.147,0.175
144431,1755604436371,77.35,-42.01,-61.71,789,857,828,424,877,34.48275862068966,-0.979,-0.147,0.173
144461,1755604436400,77.32,-41.98,-61.69,782,854,827,366,877,33.333333333333336,-0.979,-0.146,0.174
144490,1755604436430,77.32,-41.93,-61.69,782,859,829,323,873,34.48275862068966,-0.978,-0.144,0.174
144520,1755604436459,77.27,-41.87,-61.71,782,853,833,357,878,33.333333333333336,-0.974,-0.142,0.173
144550,1755604436489,77.22,-41.84,-61.76,782,865,822,407,880,33.333333333333336,-0.973,-0.142,0.173
144579,1755604436519,77.17,-41.81,-61.8,784,862,834,387,889,34.48275862068966,-0.977,-0.142,0.176
144639,1755604436578,77.13,-41.66,-61.82,776,861,831,305,882,33.333333333333336,-0.978,-0.146,0.178
144668,1755604436608,77.13,-41.59,-61.84,781,862,833,374,877,34.48275862068966,-0.976,-0.146,0.179
144698,1755604436637,77.14,-41.52,-61.87,779,865,823,399,875,33.333333333333336,-0.976,-0.147,0.179
144727,1755604436667,77.13,-41.46,-61.88,783,853,834,367,876,34.48275862068966,-0.977,-0.148,0.178
144757,1755604436697,77.15,-41.4,-61.92,784,864,830,338,879,33.333333333333336,-0.976,-0.146,0.178
144816,1755604436756,77.18,-41.25,-62.0,783,857,834,443,881,34.48275862068966,-0.977,-0.146,0.179
144846,1755604436786,77.18,-41.16,-62.02,780,862,830,417,884,33.333333333333336,-0.976,-0.147,0.179
144875,1755604436815,77.21,-41.11,-62.06,780,859,836,345,869,34.48275862068966,-0.976,-0.147,0.178
144905,1755604436845,77.23,-41.06,-62.11,779,862,835,324,881,33.333333333333336,-0.977,-0.148,0.176
144935,1755604436874,77.24,-41.03,-62.13,779,862,831,409,887,33.333333333333336,-0.978,-0.15,0.175
144964,1755604436904,77.25,-41.02,-62.13,782,854,835,418,883,34.48275862068966,-0.979,-0.152,0.173
144994,1755604436933,77.25,-41.07,-62.14,785,868,825,386,880,33.333333333333336,-0.978,-0.153,0.171
145023,1755604436963,77.26,-41.12,-62.15,778,863,838,352,874,34.48275862068966,-0.978,-0.152,0.17
145053,1755604436993,77.26,-41.18,-62.15,776,867,829,366,878,33.333333333333336,-0.979,-0.151,0.172
145083,1755604437022,77.23,-41.19,-62.14,784,859,822,425,877,33.333333333333336,-0.979,-0.15,0.173
145112,1755604437052,77.22,-41.19,-62.13,781,866,832,397,880,34.48275862068966,-0.977,-0.151,0.175
145142,1755604437081,77.25,-41.2,-62.14,783,856,818,345,881,33.333333333333336,-0.978,-0.151,0.177
145171,1755604437111,77.24,-41.16,-62.12,779,867,823,337,877,34.48275862068966,-0.977,-0.148,0.176
145201,1755604437140,77.24,-41.13,-62.14,777,868,835,418,887,33.333333333333336,-0.975,-0.146,0.175
145230,1755604437170,77.23,-41.12,-62.16,784,864,828,430,874,34.48275862068966,-0.976,-0.147,0.175
145260,1755604437200,77.21,-41.11,-62.17,783,850,827,364,873,33.333333333333336,-0.978,-0.149,0.175
145290,1755604437229,77.19,-41.07,-62.17,786,860,831,337,876,33.333333333333336,-0.978,-0.149,0.176
145319,1755604437259,77.2,-41.04,-62.18,779,861,824,355,867,34.48275862068966,-0.977,-0.148,0.177
145349,1755604437288,77.2,-40.98,-62.18,777,864,833,413,872,33.333333333333336,-0.978,-0.149,0.177
145378,1755604437318,77.21,-40.97,-62.18,778,868,835,364,877,34.48275862068966,-0.978,-0.151,0.175
145408,1755604437347,77.24,-40.96,-62.17,784,857,831,317,885,33.333333333333336,-0.977,-0.15,0.174
145437,1755604437377,77.26,-40.93,-62.18,779,869,841,327,879,34.48275862068966,-0.977,-0.149,0.175
145467,1755604437406,77.28,-40.93,-62.19,783,858,833,412,881,33.333333333333336,-0.977,-0.149,0.174
145496,1755604437436,77.29,-40.9,-62.2,780,860,828,423,876,34.48275862068966,-0.976,-0.148,0.175
145546,1755604437486,77.32,-40.84,-62.23,779,864,831,411,876,33.333333333333336,-0.977,-0.147,0.176
145576,1755604437515,77.33,-40.81,-62.24,785,859,826,347,873,33.333333333333336,-0.977,-0.148,0.174
145605,1755604437545,77.33,-40.8,-62.25,777,861,836,368,877,34.48275862068966,-0.977,-0.148,0.174
145664,1755604437604,77.34,-40.79,-62.28,779,860,834,416,880,34.48275862068966,-0.977,-0.148,0.173
145694,1755604437633,77.32,-40.76,-62.29,783,864,834,378,876,33.333333333333336,-0.977,-0.148,0.174
145723,1755604437663,77.32,-40.75,-62.31,781,866,820,293,885,34.48275862068966,-0.977,-0.149,0.174
145753,1755604437692,77.32,-40.74,-62.31,783,857,823,335,877,33.333333333333336,-0.978,-0.15,0.172
145782,1755604437722,77.31,-40.73,-62.32,784,869,835,394,879,34.48275862068966,-0.978,-0.148,0.173
145812,1755604437752,77.27,-40.68,-62.32,782,864,839,367,877,33.333333333333336,-0.976,-0.147,0.175
145842,1755604437781,77.26,-40.66,-62.34,784,861,832,336,872,33.333333333333336,-0.978,-0.148,0.175
145872,1755604437811,77.25,-40.65,-62.35,777,861,828,328,880,33.333333333333336,-0.977,-0.149,0.173
145901,1755604437841,77.25,-40.63,-62.35,777,860,829,400,884,34.48275862068966,-0.977,-0.149,0.174
145960,1755604437900,77.24,-40.63,-62.42,782,867,838,394,879,34.48275862068966,-0.977,-0.147,0.174
145990,1755604437929,77.25,-40.61,-62.44,787,852,828,305,879,33.333333333333336,-0.978,-0.149,0.175
146019,1755604437959,77.27,-40.6,-62.43,779,868,827,352,882,34.48275862068966,-0.979,-0.151,0.175
146049,1755604437988,77.29,-40.58,-62.42,779,859,827,411,871,33.333333333333336,-0.979,-0.15,0.174
146108,1755604438047,77.3,-40.52,-62.43,786,860,827,341,881,33.333333333333336,-0.977,-0.148,0.173
146137,1755604438077,77.29,-40.52,-62.45,778,863,828,360,877,34.48275862068966,-0.976,-0.148,0.173
146167,1755604438107,77.27,-40.52,-62.46,777,862,828,425,886,33.333333333333336,-0.977,-0.149,0.172
146197,1755604438136,77.28,-40.55,-62.48,782,859,828,417,880,33.333333333333336,-0.979,-0.149,0.172
146226,1755604438166,77.26,-40.55,-62.48,784,861,835,361,879,34.48275862068966,-0.978,-0.149,0.174
146256,1755604438195,77.27,-40.54,-62.49,781,860,833,336,880,33.333333333333336,-0.977,-0.149,0.174
146286,1755604438225,77.27,-40.56,-62.5,790,868,828,383,881,33.333333333333336,-0.978,-0.15,0.174
146315,1755604438255,77.3,-40.57,-62.5,784,860,832,425,881,34.48275862068966,-0.979,-0.15,0.174
146345,1755604438285,77.3,-40.59,-62.49,777,864,834,394,881,33.333333333333336,-0.979,-0.15,0.173
146375,1755604438314,77.34,-40.61,-62.5,782,866,835,329,874,33.333333333333336,-0.979,-0.149,0.173
146404,1755604438344,77.35,-40.62,-62.5,782,867,828,350,880,34.48275862068966,-0.976,-0.149,0.171
146424,1755604438364,77.46,-40.69,-62.53,777,858,827,382,879,50.0,-0.981,-0.151,0.171
146454,1755604438394,77.45,-40.74,-62.52,786,860,832,395,872,33.333333333333336,-0.978,-0.15,0.169
146484,1755604438424,77.49,-40.73,-62.52,780,860,831,420,873,33.333333333333336,-0.978,-0.148,0.169
146514,1755604438453,77.45,-40.77,-62.52,779,871,827,426,878,33.333333333333336,-0.977,-0.146,0.17
146543,1755604438483,77.52,-40.78,-62.55,782,864,831,376,878,34.48275862068966,-0.977,-0.147,0.17
146573,1755604438512,77.55,-40.83,-62.57,778,860,832,309,880,33.333333333333336,-0.979,-0.149,0.169
146602,1755604438542,77.57,-40.86,-62.59,782,857,831,345,882,34.48275862068966,-0.978,-0.149,0.17
146632,1755604438573,77.57,-40.88,-62.6,781,857,832,402,877,33.333333333333336,-0.976,-0.148,0.171
146653,1755604438592,77.58,-40.87,-62.62,782,856,827,338,879,47.61904761904762,-0.977,-0.148,0.172
146712,1755604438651,77.51,-40.84,-62.6,786,861,835,402,882,33.333333333333336,-0.978,-0.148,0.172
146741,1755604438681,77.52,-40.82,-62.62,780,866,827,327,884,34.48275862068966,-0.982,-0.149,0.172
146770,1755604438710,77.53,-40.82,-62.63,786,866,819,333,881,34.48275862068966,-0.984,-0.15,0.168
146800,1755604438740,77.51,-40.83,-62.61,779,851,832,413,878,33.333333333333336,-0.985,-0.15,0.167
146830,1755604438769,77.52,-40.84,-62.61,783,869,833,406,881,33.333333333333336,-0.981,-0.148,0.167
146859,1755604438799,77.47,-40.82,-62.63,784,865,828,333,881,34.48275862068966,-0.978,-0.146,0.169
146889,1755604438828,77.48,-40.82,-62.68,783,863,832,321,876,33.333333333333336,-0.979,-0.146,0.171
146919,1755604438858,77.46,-40.81,-62.71,782,864,832,371,880,33.333333333333336,-0.981,-0.148,0.171
146948,1755604438888,77.51,-40.78,-62.72,783,854,826,417,880,34.48275862068966,-0.982,-0.149,0.17
146978,1755604438917,77.49,-40.79,-62.72,783,862,828,384,877,33.333333333333336,-0.979,-0.15,0.169
147007,1755604438947,77.53,-40.81,-62.74,779,863,825,343,884,34.48275862068966,-0.979,-0.15,0.168
147037,1755604438976,77.51,-40.86,-62.74,778,864,833,350,879,33.333333333333336,-0.98,-0.15,0.168
147066,1755604439006,77.51,-40.86,-62.75,777,865,836,430,877,34.48275862068966,-0.98,-0.15,0.168
147086,1755604439026,77.5,-40.88,-62.75,783,857,830,359,880,50.0,-0.978,-0.149,0.169
147116,1755604439055,77.52,-40.87,-62.77,781,863,834,427,878,33.333333333333336,-0.977,-0.148,0.171
147146,1755604439085,77.51,-40.87,-62.79,777,853,831,426,880,33.333333333333336,-0.978,-0.148,0.171
147175,1755604439114,77.51,-40.85,-62.8,781,861,836,358,878,34.48275862068966,-0.979,-0.148,0.171
147205,1755604439144,77.51,-40.82,-62.81,776,862,821,339,884,33.333333333333336,-0.978,-0.148,0.17
147234,1755604439173,77.5,-40.82,-62.82,784,869,830,398,875,34.48275862068966,-0.977,-0.148,0.169
147293,1755604439233,77.47,-40.86,-62.85,781,862,825,352,878,34.48275862068966,-0.979,-0.152,0.167
147323,1755604439262,77.48,-40.91,-62.84,779,865,826,326,874,33.333333333333336,-0.981,-0.152,0.168
147382,1755604439322,77.5,-40.94,-62.82,783,864,831,411,881,33.333333333333336,-0.978,-0.15,0.17
147412,1755604439351,77.5,-40.94,-62.82,782,861,828,404,875,33.333333333333336,-0.978,-0.149,0.171
147432,1755604439371,77.52,-40.94,-62.83,780,856,820,384,878,50.0,-0.978,-0.149,0.17
147491,1755604439430,77.53,-40.97,-62.82,778,868,825,311,878,33.333333333333336,-0.979,-0.149,0.168
147520,1755604439460,77.52,-40.99,-62.81,784,862,823,311,876,34.48275862068966,-0.978,-0.148,0.169
147550,1755604439489,77.53,-40.99,-62.82,785,866,833,393,877,33.333333333333336,-0.978,-0.147,0.171
147579,1755604439519,77.52,-40.99,-62.84,783,858,823,376,886,34.48275862068966,-0.977,-0.147,0.171
147609,1755604439548,77.55,-40.95,-62.86,778,861,836,331,882,33.333333333333336,-0.977,-0.147,0.171
147638,1755604439578,77.53,-40.95,-62.87,779,864,843,319,880,34.48275862068966,-0.977,-0.148,0.17
147668,1755604439607,77.53,-40.95,-62.88,782,860,836,393,875,33.333333333333336,-0.979,-0.148,0.17
147697,1755604439636,77.56,-40.97,-62.9,785,863,825,410,874,34.48275862068966,-0.978,-0.149,0.168
147756,1755604439695,77.56,-40.98,-62.91,782,867,827,341,877,34.48275862068966,-0.978,-0.148,0.167
147786,1755604439725,77.55,-40.99,-62.92,779,861,841,381,879,33.333333333333336,-0.979,-0.147,0.168
147815,1755604439755,77.55,-40.98,-62.93,778,858,833,428,876,34.48275862068966,-0.978,-0.146,0.169
147845,1755604439784,77.54,-40.95,-62.95,785,861,832,407,877,33.333333333333336,-0.978,-0.146,0.17
147874,1755604439814,77.54,-40.94,-62.97,790,864,827,325,885,34.48275862068966,-0.978,-0.147,0.169
147904,1755604439844,77.54,-40.93,-62.99,780,871,830,350,884,33.333333333333336,-0.98,-0.148,0.169
147934,1755604439874,77.54,-40.93,-63.0,786,868,836,412,875,33.333333333333336,-0.979,-0.147,0.168
147964,1755604439903,77.53,-40.92,-63.02,778,863,827,405,879,33.333333333333336,-0.978,-0.147,0.169
147993,1755604439933,77.52,-40.91,-63.05,778,861,831,358,883,34.48275862068966,-0.977,-0.147,0.167
148023,1755604439962,77.49,-40.93,-63.08,781,855,830,329,877,33.333333333333336,-0.979,-0.15,0.167
148052,1755604439992,77.49,-40.95,-63.09,783,866,830,351,885,34.48275862068966,-0.98,-0.151,0.167
148082,1755604440021,77.48,-40.97,-63.09,779,864,833,426,881,33.333333333333336,-0.979,-0.15,0.168
148111,1755604440051,77.5,-40.96,-63.1,780,863,837,411,879,34.48275862068966,-0.978,-0.149,0.17
148141,1755604440080,77.49,-40.95,-63.11,782,858,832,337,871,33.333333333333336,-0.977,-0.149,0.169
148170,1755604440110,77.5,-40.93,-63.12,786,857,827,352,876,34.48275862068966,-0.979,-0.149,0.169
148200,1755604440140,77.51,-40.96,-63.13,783,853,837,411,875,33.333333333333336,-0.979,-0.15,0.168
148230,1755604440169,77.51,-40.97,-63.13,786,864,822,421,877,33.333333333333336,-0.98,-0.15,0.168
148259,1755604440199,77.52,-40.98,-63.12,782,867,834,326,878,34.48275862068966,-0.978,-0.149,0.168
148318,1755604440258,77.54,-41.0,-63.14,782,857,837,328,875,34.48275862068966,-0.978,-0.149,0.169
148378,1755604440317,77.57,-41.03,-63.15,788,861,832,367,876,33.333333333333336,-0.979,-0.148,0.168
148407,1755604440347,77.58,-41.04,-63.15,780,861,833,326,882,34.48275862068966,-0.978,-0.149,0.168
148466,1755604440406,77.58,-41.1,-63.16,783,859,836,423,877,34.48275862068966,-0.978,-0.148,0.167
148496,1755604440436,77.58,-41.09,-63.16,788,863,837,421,882,33.333333333333336,-0.978,-0.146,0.17
148546,1755604440486,77.6,-41.04,-63.22,778,867,831,423,877,50.0,-0.978,-0.146,0.17
148596,1755604440536,77.6,-41.05,-63.24,781,858,832,417,881,50.0,-0.982,-0.151,0.165
148626,1755604440565,77.62,-41.1,-63.25,779,860,820,364,872,33.333333333333336,-0.981,-0.152,0.164
148655,1755604440595,77.61,-41.11,-63.24,778,864,834,326,870,34.48275862068966,-0.98,-0.149,0.165
148685,1755604440624,77.6,-41.12,-63.25,785,866,828,369,877,33.333333333333336,-0.979,-0.148,0.166
148714,1755604440654,77.61,-41.11,-63.26,781,863,833,411,883,34.48275862068966,-0.979,-0.148,0.167
148764,1755604440704,77.58,-41.13,-63.27,778,873,832,413,874,33.333333333333336,-0.979,-0.149,0.165
148794,1755604440733,77.58,-41.16,-63.26,779,860,833,370,884,33.333333333333336,-0.98,-0.149,0.165
148823,1755604440762,77.57,-41.19,-63.25,784,859,827,323,884,34.48275862068966,-0.979,-0.148,0.166
148853,1755604440793,77.57,-41.21,-63.25,779,852,828,356,882,33.333333333333336,-0.978,-0.147,0.167
148873,1755604440812,77.56,-41.2,-63.26,782,864,827,343,881,50.0,-0.977,-0.146,0.168
148902,1755604440842,77.55,-41.2,-63.27,780,861,835,368,875,34.48275862068966,-0.977,-0.146,0.167
148961,1755604440901,77.53,-41.2,-63.29,780,873,829,395,878,34.48275862068966,-0.978,-0.146,0.168
148991,1755604440930,77.53,-41.17,-63.31,783,861,843,339,872,33.333333333333336,-0.978,-0.146,0.169
149020,1755604440960,77.57,-41.15,-63.33,783,869,823,333,874,34.48275862068966,-0.978,-0.148,0.169
149079,1755604441019,77.59,-41.08,-63.32,787,858,821,407,888,34.48275862068966,-0.979,-0.149,0.166
149109,1755604441049,77.63,-41.04,-63.29,783,866,832,356,878,33.333333333333336,-0.979,-0.149,0.166
149139,1755604441079,77.63,-41.03,-63.27,782,864,828,326,874,33.333333333333336,-0.978,-0.148,0.165
149169,1755604441108,77.61,-41.03,-63.25,779,866,835,362,884,33.333333333333336,-0.977,-0.147,0.166
149198,1755604441138,77.61,-41.04,-63.25,783,863,826,419,873,34.48275862068966,-0.978,-0.146,0.166
149228,1755604441168,77.59,-41.04,-63.25,786,860,831,390,878,33.333333333333336,-0.978,-0.146,0.164
149258,1755604441197,77.6,-41.06,-63.27,781,859,816,332,875,33.333333333333336,-0.979,-0.146,0.163
149287,1755604441227,77.59,-41.09,-63.27,775,862,836,340,878,34.48275862068966,-0.978,-0.146,0.163
149317,1755604441256,77.58,-41.1,-63.28,783,864,832,406,877,33.333333333333336,-0.979,-0.145,0.164
149347,1755604441286,77.58,-41.14,-63.3,778,864,820,415,880,33.333333333333336,-0.979,-0.147,0.165
149376,1755604441316,77.58,-41.17,-63.3,776,857,830,374,886,34.48275862068966,-0.979,-0.149,0.164
149406,1755604441345,77.6,-41.2,-63.3,786,857,831,327,870,33.333333333333336,-0.98,-0.149,0.163
149435,1755604441375,77.62,-41.24,-63.29,782,860,831,364,877,34.48275862068966,-0.98,-0.148,0.165
149465,1755604441405,77.65,-41.24,-63.28,780,867,842,427,884,33.333333333333336,-0.979,-0.147,0.165
149495,1755604441434,77.68,-41.26,-63.29,781,874,833,409,878,33.333333333333336,-0.979,-0.147,0.164
149524,1755604441464,77.7,-41.3,-63.28,779,857,817,329,877,34.48275862068966,-0.98,-0.148,0.163
149554,1755604441493,77.72,-41.32,-63.28,781,856,833,336,880,33.333333333333336,-0.98,-0.148,0.162
149583,1755604441522,77.74,-41.35,-63.26,780,861,829,413,879,34.48275862068966,-0.979,-0.145,0.164
149613,1755604441552,77.72,-41.33,-63.26,781,864,837,402,881,33.333333333333336,-0.978,-0.142,0.165
149642,1755604441582,77.71,-41.31,-63.28,778,852,827,355,879,34.48275862068966,-0.978,-0.142,0.165
149672,1755604441612,77.68,-41.3,-63.3,781,857,821,338,878,33.333333333333336,-0.979,-0.143,0.165
149702,1755604441642,77.65,-41.27,-63.32,782,866,824,383,882,33.333333333333336,-0.978,-0.143,0.165
149732,1755604441672,77.63,-41.24,-63.35,784,863,830,428,881,33.333333333333336,-0.979,-0.142,0.166
149791,1755604441731,77.61,-41.19,-63.4,781,862,826,357,873,34.48275862068966,-0.979,-0.145,0.167
149821,1755604441761,77.63,-41.17,-63.43,785,857,828,342,878,33.333333333333336,-0.979,-0.146,0.166
149851,1755604441790,77.63,-41.15,-63.44,784,858,840,388,891,33.333333333333336,-0.98,-0.146,0.166
149880,1755604441820,77.65,-41.15,-63.45,778,854,832,414,882,34.48275862068966,-0.98,-0.147,0.166
149910,1755604441849,77.65,-41.13,-63.47,782,861,835,386,889,33.333333333333336,-0.98,-0.146,0.166
149939,1755604441879,77.64,-41.12,-63.49,776,867,830,347,879,34.48275862068966,-0.979,-0.147,0.165
149969,1755604441909,77.64,-41.1,-63.5,782,869,826,369,874,33.333333333333336,-0.979,-0.147,0.166
149999,1755604441938,77.65,-41.1,-63.51,779,863,839,428,878,33.333333333333336,-0.98,-0.147,0.166
150028,1755604441968,77.64,-41.11,-63.51,780,856,837,406,878,34.48275862068966,-0.979,-0.147,0.166
150058,1755604441998,77.66,-41.1,-63.52,781,856,826,352,881,33.333333333333336,-0.979,-0.146,0.167
150088,1755604442027,77.64,-41.09,-63.54,782,864,828,325,878,33.333333333333336,-0.979,-0.146,0.166
150117,1755604442057,77.64,-41.08,-63.55,784,874,823,404,872,34.48275862068966,-0.98,-0.147,0.165
150147,1755604442086,77.65,-41.13,-63.55,777,859,832,414,879,33.333333333333336,-0.982,-0.148,0.165
150205,1755604442145,77.67,-41.15,-63.54,782,859,835,325,885,34.48275862068966,-0.98,-0.146,0.168
150235,1755604442174,77.68,-41.15,-63.54,777,853,826,367,882,33.333333333333336,-0.979,-0.147,0.167
150264,1755604442204,77.7,-41.18,-63.53,781,859,837,409,881,34.48275862068966,-0.98,-0.147,0.164
150294,1755604442234,77.68,-41.22,-63.52,779,860,833,387,877,33.333333333333336,-0.979,-0.147,0.163
150324,1755604442263,77.69,-41.28,-63.53,788,862,828,341,879,33.333333333333336,-0.979,-0.147,0.163
150353,1755604442293,77.67,-41.29,-63.52,780,859,830,356,878,34.48275862068966,-0.979,-0.146,0.166
150383,1755604442323,77.67,-41.28,-63.52,781,862,826,397,875,33.333333333333336,-0.979,-0.145,0.167
150413,1755604442352,77.66,-41.29,-63.51,781,856,823,406,882,33.333333333333336,-0.979,-0.145,0.167
150442,1755604442381,77.68,-41.26,-63.5,780,864,833,355,877,34.48275862068966,-0.979,-0.145,0.167
150472,1755604442411,77.68,-41.27,-63.5,778,861,839,351,880,33.333333333333336,-0.979,-0.145,0.166
150501,1755604442441,77.68,-41.25,-63.49,787,861,837,383,880,34.48275862068966,-0.979,-0.144,0.167
150531,1755604442470,77.71,-41.22,-63.5,786,863,846,429,879,33.333333333333336,-0.978,-0.142,0.167
150560,1755604442500,77.69,-41.16,-63.51,779,850,831,401,876,34.48275862068966,-0.978,-0.142,0.168
150590,1755604442529,77.72,-41.13,-63.54,785,856,822,340,877,33.333333333333336,-0.978,-0.142,0.167
150619,1755604442559,77.73,-41.11,-63.56,780,861,831,362,882,34.48275862068966,-0.978,-0.142,0.167
150649,1755604442589,77.77,-41.06,-63.59,778,855,829,413,877,33.333333333333336,-0.98,-0.143,0.166
150679,1755604442618,77.82,-41.05,-63.6,783,859,831,417,874,33.333333333333336,-0.982,-0.144,0.163
150708,1755604442648,77.86,-41.03,-63.64,777,862,825,357,880,34.48275862068966,-0.978,-0.142,0.164
150738,1755604442678,77.89,-41.0,-63.69,782,864,828,351,877,33.333333333333336,-0.975,-0.142,0.166
150768,1755604442707,77.92,-40.97,-63.73,787,865,836,379,874,33.333333333333336,-0.979,-0.144,0.167
150798,1755604442738,77.95,-40.96,-63.74,784,865,831,411,881,33.333333333333336,-0.982,-0.145,0.165
150828,1755604442768,77.98,-40.95,-63.74,781,861,819,385,882,33.333333333333336,-0.98,-0.146,0.162
150877,1755604442817,77.99,-41.02,-63.77,782,854,835,388,875,34.48275862068966,-0.978,-0.144,0.158
150907,1755604442846,77.99,-41.03,-63.81,780,858,825,323,878,33.333333333333336,-0.979,-0.14,0.157
150936,1755604442876,77.96,-41.02,-63.89,782,856,824,345,880,34.48275862068966,-0.976,-0.138,0.161
150966,1755604442905,77.95,-40.99,-63.95,784,855,831,406,884,33.333333333333336,-0.979,-0.142,0.163
150995,1755604442935,77.89,-41.01,-63.97,790,857,832,408,884,34.48275862068966,-0.982,-0.148,0.161
151025,1755604442964,77.88,-41.06,-63.94,782,864,833,339,881,33.333333333333336,-0.984,-0.154,0.16
151084,1755604443024,77.94,-41.24,-63.84,781,862,824,387,880,34.48275862068966,-0.982,-0.154,0.157
151114,1755604443053,77.98,-41.32,-63.84,782,872,824,396,881,33.333333333333336,-0.978,-0.147,0.158
151143,1755604443083,77.98,-41.35,-63.87,778,857,836,373,878,34.48275862068966,-0.976,-0.141,0.162
151173,1755604443112,77.93,-41.34,-63.9,783,866,828,328,880,33.333333333333336,-0.978,-0.141,0.164
151202,1755604443142,77.91,-41.33,-63.91,785,865,831,357,877,34.48275862068966,-0.982,-0.144,0.165
151232,1755604443172,77.89,-41.33,-63.91,777,858,832,419,882,33.333333333333336,-0.979,-0.146,0.163
151262,1755604443201,77.89,-41.32,-63.92,782,853,827,398,884,33.333333333333336,-0.977,-0.145,0.162
151321,1755604443261,77.82,-41.4,-63.94,783,861,831,330,879,33.333333333333336,-0.982,-0.146,0.16
151351,1755604443290,77.77,-41.44,-63.94,781,865,836,392,880,33.333333333333336,-0.981,-0.146,0.162
151380,1755604443320,77.74,-41.44,-63.95,786,867,834,425,876,34.48275862068966,-0.979,-0.146,0.164
151410,1755604443350,77.72,-41.43,-63.97,782,862,835,406,879,33.333333333333336,-0.978,-0.145,0.166
151440,1755604443380,77.7,-41.4,-63.99,775,855,829,336,873,33.333333333333336,-0.979,-0.146,0.167
151470,1755604443409,77.7,-41.38,-64.0,780,859,842,313,876,33.333333333333336,-0.98,-0.148,0.165
151500,1755604443439,77.7,-41.4,-63.99,782,861,832,397,877,33.333333333333336,-0.981,-0.148,0.164
151529,1755604443469,77.7,-41.4,-64.01,777,870,829,416,875,34.48275862068966,-0.978,-0.146,0.165
151559,1755604443498,77.68,-41.37,-64.03,780,873,823,355,877,33.333333333333336,-0.978,-0.145,0.166
151589,1755604443528,77.66,-41.37,-64.04,777,862,835,331,874,33.333333333333336,-0.981,-0.146,0.166
151618,1755604443558,77.66,-41.37,-64.05,783,867,832,342,879,34.48275862068966,-0.98,-0.147,0.167
151648,1755604443587,77.68,-41.32,-64.07,784,862,826,424,878,33.333333333333336,-0.979,-0.146,0.166
151677,1755604443618,77.65,-41.32,-64.08,784,866,830,402,882,34.48275862068966,-0.978,-0.146,0.165
151698,1755604443637,77.66,-41.33,-64.1,777,863,829,388,881,47.61904761904762,-0.979,-0.147,0.166
