timestamp_ms,recv_timestamp_ms,pitch,roll,yaw,flex1,flex2,flex3,flex4,flex5,sampling_hz,accel_x,accel_y,accel_z
134132,1755604427339,78.55,-45.17,-58.12,787,859,829,406,879,33.333333333333336,-0.984,-0.144,0.145
134161,1755604427341,78.56,-45.16,-58.12,777,858,831,358,869,34.48275862068966,-0.984,-0.144,0.145
134191,1755604427343,78.56,-45.15,-58.12,785,865,833,330,877,33.333333333333336,-0.984,-0.143,0.145
134221,1755604427345,78.58,-45.15,-58.13,783,852,821,365,873,33.333333333333336,-0.984,-0.143,0.145
134250,1755604427347,78.57,-45.14,-58.14,783,856,823,408,885,34.48275862068966,-0.983,-0.142,0.146
134280,1755604427349,78.58,-45.12,-58.16,781,867,819,395,877,33.333333333333336,-0.983,-0.143,0.146
134309,1755604427351,78.58,-45.12,-58.17,782,855,828,333,881,34.48275862068966,-0.984,-0.144,0.145
134339,1755604427353,78.61,-45.1,-58.17,780,861,834,349,881,33.333333333333336,-0.985,-0.143,0.146
134398,1755604427357,78.62,-45.09,-58.19,780,858,837,413,874,34.48275862068966,-0.983,-0.143,0.145
134428,1755604427360,78.62,-45.08,-58.2,783,861,830,361,876,33.333333333333336,-0.983,-0.143,0.144
134458,1755604427361,78.62,-45.06,-58.21,781,865,830,335,880,33.333333333333336,-0.984,-0.143,0.144
134488,1755604427364,78.63,-45.06,-58.23,782,861,829,360,875,33.333333333333336,-0.983,-0.143,0.145
134518,1755604427366,78.63,-45.05,-58.25,783,856,833,427,883,33.333333333333336,-0.983,-0.142,0.145
134547,1755604427368,78.65,-45.04,-58.26,779,856,832,409,878,34.48275862068966,-0.984,-0.143,0.144
134567,1755604427370,78.65,-45.03,-58.27,784,867,824,389,870,50.0,-0.984,-0.144,0.144
134597,1755604427372,78.67,-45.04,-58.28,777,870,833,386,875,33.333333333333336,-0.984,-0.144,0.143
134626,1755604427374,78.67,-45.03,-58.29,782,863,830,317,880,34.48275862068966,-0.984,-0.144,0.144
134656,1755604427376,78.66,-45.03,-58.29,783,858,838,334,873,33.333333333333336,-0.984,-0.144,0.143
134686,1755604427377,78.65,-45.02,-58.3,781,854,823,365,878,33.333333333333336,-0.984,-0.144,0.143
134715,1755604427380,78.67,-45.02,-58.32,781,860,835,403,878,34.48275862068966,-0.984,-0.144,0.144
134745,1755604427382,78.67,-45.01,-58.31,776,853,838,317,878,33.333333333333336,-0.984,-0.144,0.145
134775,1755604427384,78.67,-44.99,-58.31,784,861,823,319,882,33.333333333333336,-0.984,-0.143,0.145
134804,1755604427386,78.68,-44.99,-58.32,782,866,826,367,875,34.48275862068966,-0.982,-0.143,0.144
134834,1755604427389,78.68,-44.98,-58.34,778,865,826,427,881,33.333333333333336,-0.982,-0.143,0.144
134864,1755604427391,78.67,-44.98,-58.36,782,859,828,365,881,33.333333333333336,-0.983,-0.143,0.143
134894,1755604427393,78.68,-44.99,-58.37,789,861,831,325,881,33.333333333333336,-0.984,-0.143,0.144
134953,1755604427397,78.7,-44.98,-58.4,783,859,826,394,869,33.333333333333336,-0.983,-0.143,0.144
134982,1755604427399,78.69,-45.0,-58.42,781,863,831,404,875,34.48275862068966,-0.984,-0.143,0.143
135012,1755604427400,78.69,-45.0,-58.43,781,861,833,376,879,33.333333333333336,-0.985,-0.144,0.143
135042,1755604427403,78.7,-45.02,-58.43,789,863,836,334,877,33.333333333333336,-0.986,-0.145,0.142
135071,1755604427405,78.71,-45.04,-58.42,786,862,833,350,875,34.48275862068966,-0.985,-0.144,0.143
135130,1755604427408,78.72,-45.01,-58.45,780,866,831,390,877,34.48275862068966,-0.983,-0.143,0.145
135160,1755604427410,78.73,-45.0,-58.46,781,862,834,328,878,33.333333333333336,-0.985,-0.143,0.145
135189,1755604427412,78.73,-45.0,-58.46,783,865,828,338,879,34.48275862068966,-0.985,-0.144,0.144
135219,1755604427414,78.75,-45.0,-58.47,783,859,819,409,885,33.333333333333336,-0.984,-0.144,0.143
135248,1755604427416,78.74,-45.01,-58.47,781,870,831,414,877,34.48275862068966,-0.983,-0.143,0.143
135278,1755604427418,78.73,-45.0,-58.49,781,862,833,348,877,33.333333333333336,-0.983,-0.142,0.144
135308,1755604427420,78.72,-44.99,-58.5,779,867,838,284,888,33.333333333333336,-0.984,-0.144,0.144
135338,1755604427422,78.75,-45.01,-58.51,782,865,827,306,880,33.333333333333336,-0.984,-0.145,0.144
135367,1755604427424,78.72,-44.98,-58.5,781,864,824,377,881,34.48275862068966,-0.983,-0.144,0.143
135397,1755604427426,78.72,-44.99,-58.53,783,860,826,393,882,33.333333333333336,-0.984,-0.143,0.143
135426,1755604427429,78.73,-44.99,-58.55,782,861,828,329,880,34.48275862068966,-0.983,-0.143,0.143
135456,1755604427431,78.74,-44.96,-58.54,786,856,829,337,878,33.333333333333336,-0.982,-0.144,0.144
135486,1755604427433,78.31,-44.99,-58.53,786,864,832,403,884,33.333333333333336,-0.982,-0.144,0.144
135515,1755604427455,78.33,-44.99,-58.54,786,867,832,416,878,34.48275862068966,-0.982,-0.143,0.145
135545,1755604427484,78.32,-44.96,-58.56,783,867,831,371,879,33.333333333333336,-0.982,-0.142,0.145
135575,1755604427514,78.34,-44.95,-58.57,782,859,830,327,887,33.333333333333336,-0.983,-0.142,0.144
135604,1755604427544,78.34,-44.93,-58.58,785,864,828,377,871,34.48275862068966,-0.984,-0.142,0.145
135634,1755604427573,78.35,-44.9,-58.59,781,867,835,439,889,33.333333333333336,-0.984,-0.143,0.145
135663,1755604427603,78.36,-44.91,-58.59,782,853,834,427,879,34.48275862068966,-0.983,-0.143,0.143
135693,1755604427632,78.36,-44.91,-58.61,783,864,826,354,876,33.333333333333336,-0.983,-0.143,0.142
135722,1755604427662,78.36,-44.93,-58.63,774,860,832,362,879,34.48275862068966,-0.983,-0.143,0.143
135772,1755604427712,78.35,-44.94,-58.65,781,869,832,332,874,50.0,-0.986,-0.144,0.144
135802,1755604427741,78.38,-44.94,-58.66,782,862,841,413,880,33.333333333333336,-0.985,-0.144,0.144
135831,1755604427771,78.4,-44.93,-58.67,782,868,824,427,873,34.48275862068966,-0.983,-0.143,0.145
135861,1755604427800,78.42,-44.91,-58.69,779,856,831,365,885,33.333333333333336,-0.983,-0.142,0.146
135890,1755604427830,78.4,-44.89,-58.71,777,858,836,344,877,34.48275862068966,-0.984,-0.143,0.146
135920,1755604427859,78.42,-44.87,-58.72,778,858,833,388,872,33.333333333333336,-0.986,-0.144,0.145
135949,1755604427888,78.43,-44.87,-58.72,781,860,837,417,885,34.48275862068966,-0.985,-0.146,0.143
135979,1755604427918,78.45,-44.9,-58.72,781,857,828,360,869,33.333333333333336,-0.984,-0.147,0.142
136008,1755604427947,78.44,-44.93,-58.72,778,863,839,295,883,34.48275862068966,-0.984,-0.146,0.143
136067,1755604428007,78.47,-44.94,-58.71,782,863,834,412,885,34.48275862068966,-0.985,-0.144,0.144
136126,1755604428066,78.51,-44.97,-58.69,780,857,834,330,881,34.48275862068966,-0.985,-0.142,0.143
136156,1755604428095,78.48,-44.95,-58.69,783,863,834,344,875,33.333333333333336,-0.983,-0.14,0.144
136186,1755604428125,78.48,-44.92,-58.7,782,860,834,424,869,33.333333333333336,-0.982,-0.141,0.144
136215,1755604428154,78.46,-44.95,-58.71,782,859,832,421,883,34.48275862068966,-0.983,-0.144,0.141
136244,1755604428184,78.48,-44.97,-58.71,782,861,832,369,884,34.48275862068966,-0.985,-0.145,0.141
136274,1755604428213,78.5,-45.0,-58.7,785,867,831,356,879,33.333333333333336,-0.986,-0.145,0.14
136304,1755604428243,78.53,-45.02,-58.69,786,865,827,382,879,33.333333333333336,-0.984,-0.143,0.142
136334,1755604428273,78.55,-44.99,-58.7,784,864,817,434,888,33.333333333333336,-0.982,-0.14,0.143
136363,1755604428303,78.53,-44.97,-58.72,782,866,834,421,889,34.48275862068966,-0.982,-0.14,0.145
136393,1755604428332,78.54,-44.92,-58.73,782,860,825,341,883,33.333333333333336,-0.984,-0.141,0.146
136423,1755604428362,78.55,-44.89,-58.74,782,859,830,303,874,33.333333333333336,-0.985,-0.143,0.144
136452,1755604428392,78.56,-44.85,-58.73,780,863,831,388,889,34.48275862068966,-0.985,-0.143,0.144
136511,1755604428450,78.62,-44.81,-58.75,785,866,818,320,886,34.48275862068966,-0.984,-0.141,0.142
136541,1755604428480,78.64,-44.8,-58.75,779,861,839,296,880,33.333333333333336,-0.983,-0.141,0.142
136600,1755604428539,78.65,-44.78,-58.77,785,868,829,422,881,33.333333333333336,-0.982,-0.138,0.143
136630,1755604428569,78.63,-44.76,-58.8,784,860,833,393,877,33.333333333333336,-0.982,-0.137,0.143
136659,1755604428598,78.61,-44.73,-58.84,784,861,834,292,883,34.48275862068966,-0.983,-0.139,0.144
136689,1755604428628,78.6,-44.71,-58.85,788,853,827,279,876,33.333333333333336,-0.986,-0.142,0.143
136718,1755604428657,78.62,-44.73,-58.85,784,861,837,398,876,34.48275862068966,-0.987,-0.143,0.142
136747,1755604428687,78.62,-44.72,-58.83,779,868,833,387,876,34.48275862068966,-0.984,-0.141,0.142
136777,1755604428717,78.61,-44.69,-58.85,776,869,827,332,883,33.333333333333336,-0.982,-0.139,0.144
136807,1755604428747,78.6,-44.69,-58.87,780,860,831,343,877,33.333333333333336,-0.983,-0.141,0.144
136837,1755604428776,78.61,-44.7,-58.87,790,860,826,389,889,33.333333333333336,-0.986,-0.142,0.143
136867,1755604428806,78.62,-44.69,-58.87,779,861,831,433,880,33.333333333333336,-0.986,-0.141,0.143
136896,1755604428836,78.62,-44.69,-58.88,782,865,822,422,883,34.48275862068966,-0.982,-0.14,0.144
136926,1755604428865,78.61,-44.68,-58.91,783,855,829,334,890,33.333333333333336,-0.982,-0.139,0.143
136955,1755604428894,78.6,-44.68,-58.94,785,858,823,348,881,34.48275862068966,-0.983,-0.139,0.144
136985,1755604428924,78.59,-44.65,-58.95,781,862,832,435,874,33.333333333333336,-0.984,-0.14,0.145
137015,1755604428954,78.6,-44.63,-58.97,788,864,827,419,888,33.333333333333336,-0.984,-0.142,0.145
137074,1755604429013,78.59,-44.66,-58.98,777,858,822,334,882,33.333333333333336,-0.984,-0.142,0.143
137103,1755604429042,78.58,-44.66,-59.0,784,861,824,402,889,34.48275862068966,-0.984,-0.142,0.143
137133,1755604429072,78.6,-44.66,-59.0,776,851,828,431,876,33.333333333333336,-0.984,-0.142,0.144
137162,1755604429101,78.59,-44.64,-59.01,777,865,836,396,878,34.48275862068966,-0.983,-0.141,0.145
137192,1755604429131,78.57,-45.06,-59.03,782,855,830,345,879,33.333333333333336,-0.982,-0.14,0.145
137221,1755604429160,78.58,-45.03,-59.06,780,866,841,352,872,34.48275862068966,-0.983,-0.139,0.146
137251,1755604429190,78.59,-44.99,-59.08,783,854,836,420,878,33.333333333333336,-0.984,-0.14,0.146
137280,1755604429220,78.59,-44.98,-59.11,775,866,838,397,875,34.48275862068966,-0.982,-0.141,0.145
137310,1755604429249,78.59,-44.96,-59.14,782,860,833,318,874,33.333333333333336,-0.982,-0.141,0.145
137340,1755604429279,78.57,-44.94,-59.16,781,856,831,316,874,33.333333333333336,-0.983,-0.141,0.144
137369,1755604429309,78.57,-44.94,-59.17,776,866,830,376,876,34.48275862068966,-0.985,-0.143,0.144
137399,1755604429339,78.57,-44.94,-59.16,782,859,827,413,881,33.333333333333336,-0.986,-0.145,0.144
137429,1755604429368,78.61,-44.95,-59.18,782,868,840,385,880,33.333333333333336,-0.984,-0.144,0.145
137458,1755604429397,78.64,-44.93,-59.18,784,872,824,286,872,34.48275862068966,-0.984,-0.142,0.146
137488,1755604429427,78.67,-44.93,-59.2,782,863,833,339,877,33.333333333333336,-0.984,-0.142,0.146
137517,1755604429456,78.66,-44.93,-59.22,781,851,830,419,882,34.48275862068966,-0.982,-0.142,0.144
137547,1755604429486,78.66,-44.91,-59.25,787,869,834,424,875,33.333333333333336,-0.982,-0.141,0.144
137576,1755604429515,78.65,-44.92,-59.28,779,863,833,331,881,34.48275862068966,-0.983,-0.142,0.145
137606,1755604429545,78.63,-44.9,-59.3,783,862,830,337,882,33.333333333333336,-0.982,-0.143,0.146
137635,1755604429575,78.64,-44.87,-59.33,787,864,825,417,882,34.48275862068966,-0.984,-0.144,0.146
137694,1755604429634,78.69,-44.85,-59.34,786,862,831,364,868,34.48275862068966,-0.985,-0.147,0.145
137724,1755604429663,78.68,-44.86,-59.33,786,868,829,329,881,33.333333333333336,-0.984,-0.148,0.143
137753,1755604429693,78.72,-44.9,-59.33,785,862,835,372,883,34.48275862068966,-0.986,-0.148,0.142
137812,1755604429752,78.68,-44.96,-59.3,775,864,819,388,878,34.48275862068966,-0.982,-0.143,0.143
137842,1755604429781,78.68,-44.94,-59.34,784,866,831,317,880,33.333333333333336,-0.979,-0.14,0.146
137871,1755604429811,78.7,-44.9,-59.4,782,853,838,343,877,34.48275862068966,-0.979,-0.137,0.149
137901,1755604429840,78.67,-44.84,-59.46,786,864,824,408,883,33.333333333333336,-0.98,-0.138,0.149
137930,1755604429870,78.7,-44.81,-59.54,781,856,834,377,876,34.48275862068966,-0.98,-0.142,0.147
137960,1755604429899,78.73,-44.81,-59.59,783,866,835,311,876,33.333333333333336,-0.984,-0.147,0.146
137989,1755604429929,78.74,-44.83,-59.62,778,860,829,306,874,34.48275862068966,-0.985,-0.151,0.143
138019,1755604429958,78.76,-44.84,-59.6,781,866,832,383,874,33.333333333333336,-0.988,-0.155,0.142
138048,1755604429987,78.8,-44.88,-59.55,780,860,835,410,877,34.48275862068966,-0.987,-0.15,0.142
138078,1755604430017,78.82,-44.87,-59.52,782,865,832,313,881,33.333333333333336,-0.982,-0.144,0.144
138107,1755604430046,78.81,-44.83,-59.54,780,868,836,322,879,34.48275862068966,-0.98,-0.143,0.144
138137,1755604430076,78.82,-44.86,-59.57,780,859,826,388,877,33.333333333333336,-0.981,-0.143,0.141
138196,1755604430135,78.74,-44.95,-59.61,780,866,823,395,878,33.333333333333336,-0.981,-0.143,0.142
138255,1755604430194,78.65,-44.95,-59.66,786,859,841,364,875,33.333333333333336,-0.984,-0.145,0.145
138284,1755604430223,78.66,-44.96,-59.65,780,854,823,423,878,34.48275862068966,-0.987,-0.149,0.146
138314,1755604430253,78.7,-45.0,-59.65,783,857,840,400,876,33.333333333333336,-0.986,-0.152,0.143
138343,1755604430282,78.77,-45.05,-59.61,782,868,831,290,880,34.48275862068966,-0.987,-0.154,0.141
138372,1755604430312,78.8,-45.13,-59.55,775,868,830,277,875,34.48275862068966,-0.988,-0.154,0.139
138402,1755604430342,78.81,-45.21,-59.49,784,859,838,377,878,33.333333333333336,-0.987,-0.153,0.137
138432,1755604430371,78.84,-45.31,-59.45,776,856,830,391,871,33.333333333333336,-0.983,-0.15,0.136
138461,1755604430401,78.85,-45.38,-59.43,776,856,840,350,877,34.48275862068966,-0.982,-0.144,0.14
138491,1755604430430,78.81,-45.38,-59.42,785,861,823,319,874,33.333333333333336,-0.981,-0.139,0.144
138521,1755604430460,78.8,-45.32,-59.42,778,857,845,355,872,33.333333333333336,-0.981,-0.137,0.147
138550,1755604430489,78.79,-45.25,-59.44,783,863,825,417,878,34.48275862068966,-0.98,-0.138,0.149
138579,1755604430519,78.78,-45.17,-59.46,778,860,828,377,874,34.48275862068966,-0.981,-0.141,0.147
138609,1755604430548,78.78,-45.13,-59.46,784,865,826,298,875,33.333333333333336,-0.985,-0.144,0.144
138638,1755604430578,78.81,-45.12,-59.43,783,859,832,318,876,34.48275862068966,-0.987,-0.144,0.143
138668,1755604430607,78.81,-45.08,-59.41,779,861,836,403,876,33.333333333333336,-0.984,-0.14,0.143
138697,1755604430637,78.79,-45.06,-59.42,783,864,826,404,884,34.48275862068966,-0.98,-0.137,0.143
138727,1755604430666,78.77,-45.01,-59.46,783,861,842,351,870,33.333333333333336,-0.98,-0.136,0.145
138757,1755604430696,78.74,-44.96,-59.5,780,866,830,349,874,33.333333333333336,-0.983,-0.137,0.145
138786,1755604430725,78.75,-44.95,-59.5,786,858,846,416,879,34.48275862068966,-0.988,-0.142,0.144
138816,1755604430755,78.74,-44.97,-59.46,778,859,825,439,868,33.333333333333336,-0.988,-0.145,0.141
138845,1755604430784,78.78,-45.02,-59.44,782,873,829,378,881,34.48275862068966,-0.986,-0.143,0.139
138875,1755604430814,78.75,-45.06,-59.41,784,863,832,332,880,33.333333333333336,-0.984,-0.14,0.139
138904,1755604430843,78.73,-45.1,-59.42,783,858,820,334,878,34.48275862068966,-0.982,-0.137,0.142
138934,1755604430873,78.74,-45.09,-59.46,780,856,829,362,880,33.333333333333336,-0.982,-0.136,0.145
138963,1755604430902,78.73,-45.03,-59.5,784,854,833,321,881,34.48275862068966,-0.982,-0.138,0.147
138992,1755604430932,78.75,-45.0,-59.52,782,865,821,281,873,34.48275862068966,-0.984,-0.141,0.146
139051,1755604430991,78.75,-44.95,-59.49,781,860,826,486,872,34.48275862068966,-0.986,-0.144,0.142
139110,1755604431050,78.75,-44.89,-59.44,782,857,829,353,878,34.48275862068966,-0.983,-0.138,0.146
139140,1755604431079,78.78,-44.81,-59.46,781,862,828,347,877,33.333333333333336,-0.982,-0.136,0.148
139169,1755604431109,78.79,-44.71,-59.49,780,857,826,407,878,34.48275862068966,-0.98,-0.134,0.148
139199,1755604431138,78.81,-44.62,-59.52,777,868,830,406,880,33.333333333333336,-0.981,-0.135,0.147
139228,1755604431168,78.84,-44.6,-59.56,780,856,827,399,874,34.48275862068966,-0.984,-0.138,0.144
139258,1755604431197,78.87,-44.6,-59.57,781,864,832,347,876,33.333333333333336,-0.985,-0.14,0.141
139287,1755604431227,78.91,-44.61,-59.57,787,856,819,366,876,34.48275862068966,-0.986,-0.139,0.14
139317,1755604431256,78.93,-44.65,-59.58,784,865,818,445,870,33.333333333333336,-0.984,-0.138,0.14
139346,1755604431286,78.93,-44.65,-59.59,780,864,828,403,883,34.48275862068966,-0.984,-0.139,0.14
139376,1755604431315,78.91,-44.68,-59.59,783,861,837,324,878,33.333333333333336,-0.984,-0.139,0.14
139405,1755604431345,78.9,-44.67,-59.59,782,868,828,337,875,34.48275862068966,-0.985,-0.139,0.142
139435,1755604431374,78.88,-44.66,-59.6,782,853,834,413,877,33.333333333333336,-0.983,-0.137,0.143
139464,1755604431404,78.86,-44.62,-59.61,778,867,837,410,873,34.48275862068966,-0.984,-0.137,0.145
139523,1755604431463,78.83,-44.6,-59.61,780,858,825,331,876,34.48275862068966,-0.986,-0.14,0.142
139553,1755604431492,78.86,-45.02,-59.6,784,862,833,384,882,33.333333333333336,-0.988,-0.14,0.144
139582,1755604431522,78.82,-44.97,-59.59,780,862,831,409,880,34.48275862068966,-0.984,-0.138,0.143
139612,1755604431551,78.89,-44.93,-59.6,783,858,831,355,876,33.333333333333336,-0.985,-0.133,0.142
139641,1755604431581,78.83,-44.95,-59.62,782,859,834,300,881,34.48275862068966,-0.98,-0.126,0.148
139671,1755604431610,78.84,-44.8,-59.73,778,868,824,333,875,33.333333333333336,-0.976,-0.123,0.154
139701,1755604431640,78.78,-44.63,-59.84,780,853,835,411,878,33.333333333333336,-0.978,-0.129,0.153
139730,1755604431670,78.83,-44.55,-59.92,783,863,824,395,879,34.48275862068966,-0.986,-0.141,0.147
139760,1755604431699,78.85,-44.54,-59.91,782,865,826,340,872,33.333333333333336,-0.989,-0.151,0.145
139789,1755604431729,78.96,-44.57,-59.89,780,856,826,349,881,34.48275862068966,-0.989,-0.155,0.139
139819,1755604431758,79.01,-44.64,-59.85,782,867,833,417,876,33.333333333333336,-0.989,-0.153,0.136
139848,1755604431788,79.05,-44.72,-59.82,784,850,824,430,874,34.48275862068966,-0.987,-0.147,0.135
139878,1755604431817,79.03,-44.75,-59.8,782,860,830,383,873,33.333333333333336,-0.984,-0.139,0.14
139907,1755604431847,79.03,-44.68,-59.82,786,859,831,342,879,34.48275862068966,-0.983,-0.134,0.145
139937,1755604431877,79.01,-44.62,-59.85,784,865,825,379,885,33.333333333333336,-0.984,-0.135,0.146
139967,1755604431906,79.03,-44.54,-59.87,780,873,830,433,884,33.333333333333336,-0.984,-0.137,0.146
140026,1755604431965,79.04,-44.51,-59.92,778,866,833,344,874,34.48275862068966,-0.984,-0.139,0.14
140056,1755604431995,79.04,-44.55,-59.94,781,863,833,313,877,33.333333333333336,-0.986,-0.142,0.138
140115,1755604432054,79.04,-44.65,-59.9,784,866,824,425,871,33.333333333333336,-0.986,-0.141,0.139
140144,1755604432083,79.02,-44.62,-59.91,781,866,840,360,880,34.48275862068966,-0.982,-0.137,0.142
140174,1755604432113,79.0,-44.58,-59.95,783,872,826,355,878,33.333333333333336,-0.981,-0.135,0.143
140203,1755604432142,78.98,-44.54,-60.0,785,857,833,400,876,34.48275862068966,-0.984,-0.136,0.144
140233,1755604432172,79.0,-44.49,-60.02,781,860,831,432,879,33.333333333333336,-0.987,-0.138,0.141
140262,1755604432202,79.02,-44.48,-60.07,784,862,830,405,870,34.48275862068966,-0.983,-0.133,0.136
140283,1755604432222,79.04,-44.48,-60.15,783,865,826,410,878,47.61904761904762,-0.976,-0.126,0.136
140312,1755604432252,78.94,-44.41,-60.31,783,859,839,386,884,34.48275862068966,-0.973,-0.125,0.14
140342,1755604432281,78.89,-44.43,-60.45,782,864,828,327,868,33.333333333333336,-0.982,-0.139,0.138
140401,1755604432340,78.85,-44.64,-60.48,785,855,833,423,876,33.333333333333336,-0.987,-0.16,0.143
140430,1755604432370,78.87,-44.7,-60.37,781,860,823,404,879,34.48275862068966,-0.993,-0.165,0.146
140460,1755604432399,79.11,-44.8,-60.31,782,859,832,306,880,33.333333333333336,-0.987,-0.161,0.142
140489,1755604432429,79.26,-44.86,-60.29,786,864,834,314,880,34.48275862068966,-0.977,-0.14,0.141
140519,1755604432458,79.14,-44.82,-60.37,786,872,833,397,875,33.333333333333336,-0.974,-0.124,0.146
140548,1755604432488,78.92,-44.7,-60.46,784,867,837,414,885,34.48275862068966,-0.981,-0.131,0.146
140578,1755604432517,78.78,-44.67,-60.52,779,865,828,349,874,33.333333333333336,-0.981,-0.142,0.144
140607,1755604432547,78.94,-44.7,-60.62,782,866,831,309,875,34.48275862068966,-0.985,-0.152,0.145
140666,1755604432606,78.9,-44.68,-60.51,776,862,835,397,873,34.48275862068966,-0.994,-0.158,0.145
140696,1755604432635,78.9,-44.77,-60.41,781,866,835,397,883,33.333333333333336,-0.991,-0.15,0.141
140725,1755604432665,78.84,-44.73,-60.39,779,861,835,327,880,34.48275862068966,-0.978,-0.142,0.139
140755,1755604432694,78.73,-44.74,-60.43,789,860,836,351,885,33.333333333333336,-0.979,-0.142,0.137
140784,1755604432724,78.63,-44.81,-60.44,781,858,833,413,878,34.48275862068966,-0.984,-0.144,0.138
140814,1755604432753,78.61,-44.84,-60.45,788,857,830,403,874,33.333333333333336,-0.976,-0.141,0.144
140843,1755604432783,78.5,-44.82,-60.48,785,868,821,330,878,34.48275862068966,-0.977,-0.14,0.151
140902,1755604432842,78.21,-44.73,-60.36,785,856,831,392,878,34.48275862068966,-0.989,-0.151,0.15
140932,1755604432871,78.07,-44.7,-60.23,782,863,826,399,876,33.333333333333336,-0.986,-0.156,0.146
140962,1755604432901,78.01,-44.75,-60.08,782,852,825,350,882,33.333333333333336,-0.989,-0.159,0.14
141021,1755604432960,78.09,-45.04,-59.87,778,862,822,344,872,33.333333333333336,-0.978,-0.152,0.147
141050,1755604432990,78.12,-45.08,-59.83,779,865,838,414,876,34.48275862068966,-0.979,-0.14,0.152
141080,1755604433019,78.1,-45.01,-59.79,785,859,840,393,880,33.333333333333336,-0.98,-0.13,0.16
141168,1755604433108,78.29,-44.36,-59.89,787,855,817,377,877,34.48275862068966,-0.975,-0.12,0.171
141198,1755604433137,78.29,-44.07,-59.96,781,862,836,373,879,33.333333333333336,-0.973,-0.121,0.17
141227,1755604433167,78.26,-43.85,-60.04,782,858,838,325,874,34.48275862068966,-0.977,-0.126,0.163
141257,1755604433196,78.25,-43.72,-60.06,778,862,830,296,883,33.333333333333336,-0.986,-0.134,0.158
141287,1755604433226,78.27,-43.61,-60.05,788,862,833,348,882,33.333333333333336,-0.982,-0.133,0.157
141375,1755604433314,78.21,-43.3,-60.16,782,856,835,288,881,34.48275862068966,-0.984,-0.135,0.157
141405,1755604433344,78.2,-43.25,-60.15,776,862,834,308,877,33.333333333333336,-0.986,-0.138,0.157
141434,1755604433373,78.29,-43.19,-60.16,778,860,828,387,877,34.48275862068966,-0.986,-0.138,0.155
141463,1755604433403,78.42,-43.17,-60.19,783,867,822,399,874,34.48275862068966,-0.98,-0.133,0.152
141493,1755604433433,78.55,-43.2,-60.35,780,864,834,352,882,33.333333333333336,-0.972,-0.12,0.149
141523,1755604433462,78.46,-43.16,-60.55,785,855,826,349,880,33.333333333333336,-0.97,-0.113,0.156
141552,1755604433491,78.33,-42.99,-60.76,783,855,818,436,868,34.48275862068966,-0.973,-0.12,0.164
141582,1755604433521,78.41,-42.87,-60.95,777,860,830,482,882,33.333333333333336,-0.984,-0.133,0.164
141611,1755604433551,78.55,-42.71,-61.05,774,863,825,449,876,34.48275862068966,-0.986,-0.148,0.164
141641,1755604433580,78.63,-42.63,-61.09,780,857,830,425,890,33.333333333333336,-0.986,-0.153,0.158
141670,1755604433610,78.56,-42.6,-61.1,775,862,828,451,879,34.48275862068966,-0.985,-0.153,0.15
141700,1755604433639,78.52,-42.69,-61.12,783,857,824,488,878,33.333333333333336,-0.984,-0.158,0.148
141730,1755604433669,78.59,-42.78,-61.15,783,861,823,435,881,33.333333333333336,-0.984,-0.157,0.145
141759,1755604433698,78.64,-42.84,-61.18,783,857,832,382,876,34.48275862068966,-0.984,-0.152,0.148
141789,1755604433728,78.42,-42.87,-61.11,784,862,831,349,883,33.333333333333336,-0.988,-0.156,0.152
141818,1755604433758,78.4,-43.0,-61.01,781,863,828,439,879,34.48275862068966,-0.991,-0.158,0.145
141848,1755604433787,78.51,-43.14,-61.0,779,865,836,422,882,33.333333333333336,-0.981,-0.148,0.15
141877,1755604433817,78.33,-43.1,-61.06,782,863,843,353,881,34.48275862068966,-0.969,-0.14,0.154
141907,1755604433846,78.21,-43.19,-61.16,786,854,832,312,879,33.333333333333336,-0.979,-0.145,0.149
141966,1755604433905,78.08,-43.43,-61.12,783,862,822,416,872,33.333333333333336,-0.986,-0.158,0.152
141996,1755604433935,78.03,-43.47,-61.03,781,860,831,394,881,33.333333333333336,-0.988,-0.163,0.156
142055,1755604433994,77.96,-43.56,-60.84,780,862,823,330,880,33.333333333333336,-0.979,-0.152,0.168
142084,1755604434023,77.98,-43.48,-60.79,777,860,834,399,876,34.48275862068966,-0.98,-0.15,0.165
142113,1755604434053,78.07,-43.48,-60.75,786,865,826,385,880,34.48275862068966,-0.98,-0.146,0.164
142143,1755604434082,78.05,-43.41,-60.74,778,862,827,304,883,33.333333333333336,-0.977,-0.141,0.163
142172,1755604434112,77.98,-43.3,-60.74,779,856,835,292,877,34.48275862068966,-0.978,-0.138,0.162
142202,1755604434142,77.92,-43.21,-60.74,783,861,835,340,882,33.333333333333336,-0.978,-0.14,0.164
142232,1755604434171,77.96,-43.11,-60.73,781,859,831,368,876,33.333333333333336,-0.98,-0.14,0.165
142261,1755604434201,77.95,-43.02,-60.72,782,863,830,334,887,34.48275862068966,-0.978,-0.141,0.165
142291,1755604434230,77.99,-42.93,-60.74,782,869,833,294,877,33.333333333333336,-0.979,-0.14,0.164
142321,1755604434260,78.02,-42.87,-60.75,781,863,832,336,883,33.333333333333336,-0.979,-0.142,0.162
142350,1755604434290,78.12,-42.82,-60.79,779,863,829,409,867,34.48275862068966,-0.976,-0.146,0.161
142410,1755604434349,78.54,-42.97,-61.05,784,864,830,302,881,33.333333333333336,-0.969,-0.14,0.16
142439,1755604434379,78.56,-42.95,-61.17,779,864,830,313,875,34.48275862068966,-0.973,-0.138,0.161
142469,1755604434408,78.61,-42.97,-61.25,780,866,833,346,880,33.333333333333336,-0.986,-0.142,0.156
142498,1755604434438,78.63,-42.98,-61.22,784,862,830,409,874,34.48275862068966,-0.994,-0.147,0.153
142528,1755604434467,78.59,-42.97,-61.17,778,861,834,370,884,33.333333333333336,-0.99,-0.148,0.151
142557,1755604434497,78.54,-42.97,-61.17,782,856,831,322,885,34.48275862068966,-0.981,-0.147,0.149
142616,1755604434556,78.47,-43.11,-61.17,782,864,823,407,875,34.48275862068966,-0.985,-0.149,0.153
142646,1755604434585,78.47,-43.07,-61.15,786,866,817,384,876,33.333333333333336,-0.983,-0.147,0.155
142676,1755604434615,78.5,-43.05,-61.16,777,862,826,320,879,33.333333333333336,-0.979,-0.145,0.155
142705,1755604434644,78.47,-43.05,-61.18,779,860,817,326,881,34.48275862068966,-0.979,-0.145,0.154
142735,1755604434674,78.44,-43.09,-61.2,787,865,825,404,878,33.333333333333336,-0.982,-0.148,0.151
142764,1755604434703,78.38,-43.14,-61.19,785,855,835,379,882,34.48275862068966,-0.983,-0.151,0.151
142794,1755604434733,78.37,-43.19,-61.16,781,861,843,321,881,33.333333333333336,-0.985,-0.151,0.15
142823,1755604434763,78.37,-43.24,-61.13,783,864,828,312,878,34.48275862068966,-0.985,-0.147,0.151
142853,1755604434792,78.37,-43.25,-61.16,783,870,824,373,873,33.333333333333336,-0.976,-0.139,0.153
142882,1755604434822,78.38,-43.25,-61.3,780,863,831,408,873,34.48275862068966,-0.968,-0.133,0.158
142912,1755604434851,78.37,-43.18,-61.47,783,862,836,395,867,33.333333333333336,-0.972,-0.139,0.16
142941,1755604434881,78.38,-43.19,-61.57,781,860,825,346,879,34.48275862068966,-0.982,-0.149,0.156
