timestamp_ms,recv_timestamp_ms,pitch,roll,yaw,flex1,flex2,flex3,flex4,flex5,sampling_hz,accel_x,accel_y,accel_z
205543,1755607854447,12.33,-66.1,-46.18,839,778,875,394,934,33.333333333333336,-0.244,-0.93,0.451
205572,1755607854449,12.36,-65.75,-45.75,848,774,873,352,932,34.48275862068966,-0.25,-0.928,0.444
205602,1755607854451,12.45,-64.89,-45.36,845,773,872,360,937,33.333333333333336,-0.246,-0.913,0.445
205632,1755607854454,12.39,-63.84,-45.04,849,780,867,402,934,33.333333333333336,-0.227,-0.881,0.444
205691,1755607854457,12.53,-63.33,-44.87,847,774,872,348,929,33.333333333333336,-0.211,-0.853,0.442
205720,1755607854460,12.65,-63.31,-44.77,849,774,871,351,934,34.48275862068966,-0.221,-0.86,0.446
205750,1755607854462,12.77,-63.09,-44.64,849,776,871,396,934,33.333333333333336,-0.227,-0.864,0.446
205779,1755607854464,12.69,-62.84,-44.57,848,775,865,412,933,34.48275862068966,-0.23,-0.858,0.45
205809,1755607854465,12.63,-62.71,-44.56,850,771,870,383,939,33.333333333333336,-0.229,-0.848,0.456
205838,1755607854467,12.68,-62.57,-44.51,843,778,867,359,935,34.48275862068966,-0.228,-0.848,0.458
205868,1755607854470,12.75,-62.53,-44.48,846,778,865,375,931,33.333333333333336,-0.228,-0.845,0.461
205927,1755607854474,12.81,-62.26,-44.31,849,773,867,384,932,33.333333333333336,-0.232,-0.848,0.464
205956,1755607854476,12.76,-62.18,-44.41,846,780,866,311,932,34.48275862068966,-0.232,-0.848,0.464
205986,1755607854478,12.73,-62.17,-44.43,848,776,869,354,932,33.333333333333336,-0.234,-0.852,0.465
206016,1755607854480,12.65,-62.15,-44.46,844,779,867,393,932,33.333333333333336,-0.235,-0.854,0.467
206046,1755607854482,12.62,-62.08,-44.52,852,772,864,422,936,33.333333333333336,-0.229,-0.846,0.469
206076,1755607854485,12.76,-62.17,-44.6,848,776,866,364,935,33.333333333333336,-0.23,-0.842,0.468
206105,1755607854487,12.86,-62.38,-44.68,848,774,861,352,928,34.48275862068966,-0.234,-0.848,0.465
206126,1755607854489,12.87,-62.51,-44.72,847,773,866,391,924,47.61904761904762,-0.237,-0.854,0.463
206155,1755607854492,12.87,-62.57,-44.77,849,770,864,348,937,34.48275862068966,-0.239,-0.854,0.463
206185,1755607854494,12.9,-62.57,-44.8,849,779,870,383,930,33.333333333333336,-0.238,-0.853,0.465
206214,1755607854496,12.97,-62.58,-44.83,848,776,866,406,934,34.48275862068966,-0.237,-0.853,0.467
206244,1755607854498,13.0,-62.53,-44.87,849,777,866,390,939,33.333333333333336,-0.235,-0.851,0.468
206273,1755607854500,13.05,-62.49,-44.88,843,774,863,356,928,34.48275862068966,-0.235,-0.854,0.467
206303,1755607854502,13.12,-62.41,-44.86,847,773,862,367,935,33.333333333333336,-0.237,-0.858,0.464
206323,1755607854504,13.1,-62.34,-44.87,848,775,864,378,932,50.0,-0.236,-0.855,0.463
206352,1755607854507,13.04,-62.31,-44.88,844,779,870,381,931,34.48275862068966,-0.235,-0.854,0.464
206382,1755607854509,13.02,-62.3,-44.88,848,774,866,411,936,33.333333333333336,-0.233,-0.853,0.465
206411,1755607854511,12.96,-62.31,-44.89,848,772,867,390,931,34.48275862068966,-0.23,-0.854,0.464
206441,1755607854513,12.88,-62.33,-44.92,842,775,863,362,940,33.333333333333336,-0.229,-0.852,0.463
206470,1755607854515,12.87,-62.33,-44.94,847,778,868,351,932,34.48275862068966,-0.231,-0.855,0.464
206500,1755607854518,12.8,-62.3,-44.93,847,778,861,399,933,33.333333333333336,-0.232,-0.852,0.463
206529,1755607854519,12.77,-62.29,-44.95,847,774,857,393,936,34.48275862068966,-0.231,-0.85,0.463
206559,1755607854521,12.82,-62.25,-44.89,849,776,867,360,935,33.333333333333336,-0.234,-0.853,0.466
206589,1755607854523,12.87,-62.11,-44.77,845,771,860,341,930,33.333333333333336,-0.234,-0.853,0.466
206618,1755607854525,12.91,-61.97,-44.65,838,770,864,373,938,34.48275862068966,-0.229,-0.849,0.466
206647,1755607854527,12.96,-61.97,-44.63,844,777,859,413,929,34.48275862068966,-0.228,-0.846,0.466
206677,1755607854529,13.01,-62.02,-44.64,839,780,854,394,936,33.333333333333336,-0.228,-0.844,0.465
206707,1755607854532,13.02,-62.07,-44.66,843,782,866,351,934,33.333333333333336,-0.23,-0.845,0.464
206736,1755607854534,13.04,-62.1,-44.65,843,778,863,369,932,34.48275862068966,-0.231,-0.85,0.465
206765,1755607854536,13.07,-62.11,-44.67,850,778,866,416,931,34.48275862068966,-0.234,-0.851,0.465
206795,1755607854538,13.07,-62.06,-44.62,848,771,860,399,935,33.333333333333336,-0.231,-0.849,0.464
206825,1755607854539,13.09,-62.2,-44.7,846,778,867,366,930,33.333333333333336,-0.234,-0.85,0.463
206854,1755607854541,13.04,-62.28,-44.71,848,773,867,341,934,34.48275862068966,-0.231,-0.847,0.462
206883,1755607854543,13.14,-62.24,-44.71,844,774,861,386,931,34.48275862068966,-0.233,-0.848,0.464
206913,1755607854546,13.21,-62.13,-44.64,848,771,865,394,927,33.333333333333336,-0.235,-0.85,0.462
206943,1755607854548,13.26,-62.17,-44.67,849,781,864,372,929,33.333333333333336,-0.238,-0.851,0.46
206972,1755607854550,13.24,-62.19,-44.66,846,777,856,364,933,34.48275862068966,-0.239,-0.853,0.459
207002,1755607854552,13.29,-62.16,-44.6,847,777,867,366,929,33.333333333333336,-0.239,-0.854,0.457
207031,1755607854554,13.27,-62.17,-44.6,844,778,864,411,938,34.48275862068966,-0.239,-0.853,0.455
207061,1755607854556,13.27,-62.17,-44.61,844,769,863,397,930,33.333333333333336,-0.24,-0.853,0.457
207091,1755607854558,13.27,-62.13,-44.59,845,779,865,356,934,33.333333333333336,-0.239,-0.855,0.457
207120,1755607854560,13.23,-62.14,-44.56,845,775,856,358,933,34.48275862068966,-0.236,-0.852,0.457
207150,1755607854563,13.25,-62.18,-44.56,847,780,863,402,934,33.333333333333336,-0.234,-0.851,0.456
207179,1755607854565,13.25,-62.28,-44.6,844,780,863,405,933,34.48275862068966,-0.234,-0.852,0.455
207209,1755607854567,13.22,-62.38,-44.6,845,775,863,375,934,33.333333333333336,-0.233,-0.849,0.456
207238,1755607854569,13.25,-62.46,-44.6,846,773,865,336,931,34.48275862068966,-0.235,-0.848,0.456
207268,1755607854571,13.33,-62.49,-44.62,844,774,866,365,932,33.333333333333336,-0.238,-0.849,0.456
207297,1755607854573,13.37,-62.44,-44.66,844,780,863,412,926,34.48275862068966,-0.242,-0.854,0.456
207327,1755607854576,13.39,-62.39,-44.65,844,779,863,391,933,33.333333333333336,-0.241,-0.854,0.455
207357,1755607854578,13.44,-62.39,-44.6,843,775,859,338,926,33.333333333333336,-0.237,-0.853,0.452
207386,1755607854581,13.54,-62.39,-44.56,842,776,862,366,935,34.48275862068966,-0.236,-0.856,0.451
207416,1755607854583,13.54,-62.38,-44.56,849,768,866,399,929,33.333333333333336,-0.239,-0.859,0.452
207445,1755607854584,13.51,-62.35,-44.55,849,769,862,408,931,34.48275862068966,-0.238,-0.853,0.452
207504,1755607854588,13.66,-62.59,-44.48,848,775,861,347,934,34.48275862068966,-0.232,-0.849,0.45
207534,1755607854590,13.73,-62.72,-44.5,844,769,861,382,931,33.333333333333336,-0.24,-0.857,0.451
207564,1755607854592,13.72,-62.73,-44.49,844,771,858,412,926,33.333333333333336,-0.245,-0.86,0.449
207593,1755607854612,13.77,-62.7,-44.47,849,774,858,395,930,34.48275862068966,-0.247,-0.858,0.448
207623,1755607854642,13.78,-62.68,-44.47,849,770,855,310,926,33.333333333333336,-0.248,-0.861,0.448
207652,1755607854672,13.77,-62.59,-44.41,847,778,862,333,932,34.48275862068966,-0.247,-0.862,0.448
207682,1755607854701,13.77,-62.44,-44.28,848,769,863,383,934,33.333333333333336,-0.246,-0.862,0.448
207712,1755607854731,13.79,-62.29,-44.2,845,779,856,393,929,33.333333333333336,-0.244,-0.862,0.449
207742,1755607854761,13.73,-62.2,-44.2,846,773,856,359,930,33.333333333333336,-0.243,-0.859,0.449
207771,1755607854790,13.72,-62.18,-44.21,846,778,858,340,930,34.48275862068966,-0.242,-0.855,0.45
207801,1755607854820,13.76,-62.13,-44.22,844,776,857,370,932,33.333333333333336,-0.243,-0.853,0.449
207831,1755607854850,13.74,-62.07,-44.26,844,773,859,390,930,33.333333333333336,-0.247,-0.855,0.45
207860,1755607854879,13.71,-62.02,-44.27,848,771,863,388,931,34.48275862068966,-0.25,-0.857,0.452
207889,1755607854908,13.67,-61.96,-44.25,842,771,859,345,931,34.48275862068966,-0.248,-0.857,0.453
207919,1755607854938,13.65,-61.86,-44.25,846,770,860,363,932,33.333333333333336,-0.246,-0.854,0.454
207949,1755607854967,13.63,-61.79,-44.24,846,780,856,416,931,33.333333333333336,-0.246,-0.853,0.456
207978,1755607854997,13.57,-61.71,-44.24,846,774,858,412,934,34.48275862068966,-0.246,-0.855,0.458
208037,1755607855056,13.51,-61.54,-44.15,844,778,861,352,928,34.48275862068966,-0.244,-0.849,0.461
208067,1755607855086,13.49,-61.54,-44.15,840,769,858,386,938,33.333333333333336,-0.244,-0.847,0.462
208096,1755607855115,13.48,-61.54,-44.13,844,781,860,393,931,34.48275862068966,-0.247,-0.85,0.463
208126,1755607855145,13.47,-61.48,-44.09,845,776,857,371,934,33.333333333333336,-0.246,-0.85,0.464
208155,1755607855174,13.49,-61.46,-44.09,848,778,860,341,928,34.48275862068966,-0.244,-0.848,0.464
208185,1755607855203,13.49,-61.44,-44.08,847,776,863,353,928,33.333333333333336,-0.244,-0.847,0.465
208214,1755607855233,13.51,-61.43,-44.07,847,768,861,399,920,34.48275862068966,-0.244,-0.847,0.466
208244,1755607855262,13.52,-61.41,-44.05,844,776,861,396,933,33.333333333333336,-0.246,-0.849,0.466
208273,1755607855292,13.53,-61.37,-44.02,847,769,859,338,934,34.48275862068966,-0.247,-0.849,0.467
208303,1755607855321,13.54,-61.28,-43.99,846,776,861,357,930,33.333333333333336,-0.247,-0.846,0.468
208332,1755607855351,13.55,-61.22,-43.95,846,772,861,405,927,34.48275862068966,-0.246,-0.843,0.468
208362,1755607855381,13.58,-61.23,-43.93,842,774,860,388,931,33.333333333333336,-0.247,-0.843,0.469
208391,1755607855410,13.6,-61.17,-43.88,845,768,861,351,927,34.48275862068966,-0.244,-0.845,0.467
208421,1755607855440,13.6,-61.25,-43.9,845,777,857,344,926,33.333333333333336,-0.244,-0.844,0.467
208450,1755607855469,13.64,-61.26,-43.88,845,779,863,385,931,34.48275862068966,-0.243,-0.843,0.469
208480,1755607855499,13.7,-61.25,-43.87,842,775,859,401,927,33.333333333333336,-0.247,-0.843,0.47
208509,1755607855529,13.72,-61.18,-43.84,846,776,864,380,931,34.48275862068966,-0.25,-0.844,0.469
208539,1755607855558,13.73,-61.18,-43.84,844,779,861,350,929,33.333333333333336,-0.25,-0.843,0.469
208569,1755607855588,13.73,-61.23,-43.82,842,773,860,360,934,33.333333333333336,-0.247,-0.84,0.468
208598,1755607855617,13.77,-61.32,-43.85,844,770,858,391,927,34.48275862068966,-0.247,-0.842,0.468
208628,1755607855647,13.77,-61.35,-43.86,844,779,853,382,929,33.333333333333336,-0.25,-0.846,0.469
208657,1755607855676,13.78,-61.36,-43.86,845,774,865,340,931,34.48275862068966,-0.248,-0.845,0.468
208687,1755607855706,13.8,-61.43,-43.87,845,775,861,340,932,33.333333333333336,-0.248,-0.846,0.468
208717,1755607855735,13.8,-61.53,-43.9,845,774,862,379,930,33.333333333333336,-0.248,-0.846,0.467
208746,1755607855765,13.8,-61.64,-43.92,843,775,860,393,928,34.48275862068966,-0.248,-0.844,0.465
208776,1755607855794,13.82,-61.74,-43.95,845,779,860,379,933,33.333333333333336,-0.248,-0.846,0.464
208805,1755607855824,13.82,-61.85,-43.97,842,777,857,352,927,34.48275862068966,-0.249,-0.848,0.463
208835,1755607855853,13.85,-61.91,-43.95,845,774,862,383,933,33.333333333333336,-0.249,-0.85,0.463
208894,1755607855912,13.94,-61.9,-44.0,842,774,862,395,923,33.333333333333336,-0.253,-0.852,0.46
208923,1755607855942,13.95,-61.87,-44.01,843,778,860,357,934,34.48275862068966,-0.252,-0.854,0.458
208953,1755607855971,13.96,-61.87,-44.0,844,780,858,366,933,33.333333333333336,-0.249,-0.852,0.457
208982,1755607856001,14.0,-61.87,-43.99,841,778,855,407,928,34.48275862068966,-0.247,-0.851,0.457
209012,1755607856030,14.06,-61.85,-44.0,846,780,868,397,933,33.333333333333336,-0.249,-0.852,0.457
209041,1755607856060,14.07,-61.76,-43.99,843,768,864,364,933,34.48275862068966,-0.249,-0.852,0.456
209071,1755607856089,14.1,-61.77,-44.0,842,776,856,359,931,33.333333333333336,-0.249,-0.853,0.455
209100,1755607856119,14.11,-61.76,-44.0,846,777,857,397,935,34.48275862068966,-0.248,-0.852,0.456
209130,1755607856149,14.14,-61.75,-43.98,843,774,859,401,930,33.333333333333336,-0.25,-0.852,0.456
209159,1755607856178,14.16,-61.69,-43.95,839,777,860,368,925,34.48275862068966,-0.251,-0.854,0.455
209189,1755607856207,14.14,-61.62,-43.91,840,774,860,334,930,33.333333333333336,-0.249,-0.853,0.455
209248,1755607856267,14.14,-61.6,-43.88,843,770,862,415,933,33.333333333333336,-0.248,-0.85,0.456
209278,1755607856296,14.18,-61.57,-43.86,844,771,859,382,932,33.333333333333336,-0.25,-0.851,0.456
209307,1755607856326,14.19,-61.53,-43.84,843,770,862,349,927,34.48275862068966,-0.252,-0.852,0.454
209337,1755607856355,14.2,-61.54,-43.83,840,769,860,361,931,33.333333333333336,-0.251,-0.85,0.454
209366,1755607856385,14.21,-61.52,-43.81,845,773,863,403,927,34.48275862068966,-0.25,-0.848,0.453
209396,1755607856414,14.23,-61.66,-43.87,841,775,862,406,926,33.333333333333336,-0.25,-0.848,0.455
209425,1755607856444,14.22,-61.75,-43.88,846,774,861,378,926,34.48275862068966,-0.25,-0.849,0.456
209455,1755607856473,14.28,-61.69,-43.85,846,773,865,362,933,33.333333333333336,-0.252,-0.849,0.457
209484,1755607856503,14.27,-61.63,-43.85,845,766,863,386,938,34.48275862068966,-0.252,-0.849,0.457
209514,1755607856533,14.28,-61.64,-43.87,845,778,857,387,930,33.333333333333336,-0.251,-0.847,0.454
209543,1755607856562,14.3,-61.67,-43.89,852,770,858,368,932,34.48275862068966,-0.251,-0.847,0.453
209573,1755607856592,14.32,-61.7,-43.88,845,774,857,344,926,33.333333333333336,-0.252,-0.848,0.452
209602,1755607856621,14.32,-61.75,-43.9,845,775,863,314,930,34.48275862068966,-0.254,-0.851,0.452
209632,1755607856651,14.31,-61.75,-43.91,844,778,863,385,929,33.333333333333336,-0.254,-0.852,0.452
209661,1755607856680,14.3,-61.77,-43.89,846,768,854,392,929,34.48275862068966,-0.254,-0.852,0.45
209691,1755607856710,14.31,-61.81,-43.86,844,773,863,342,933,33.333333333333336,-0.254,-0.852,0.451
209720,1755607856739,14.31,-61.82,-43.83,843,774,860,337,933,34.48275862068966,-0.254,-0.85,0.451
209750,1755607856769,14.34,-61.85,-43.84,845,779,859,394,928,33.333333333333336,-0.254,-0.849,0.451
209779,1755607856798,14.35,-61.9,-43.87,842,780,860,407,927,34.48275862068966,-0.254,-0.851,0.451
209809,1755607856828,14.35,-61.9,-43.89,845,774,858,381,935,33.333333333333336,-0.254,-0.852,0.452
209839,1755607856858,14.36,-61.84,-43.88,843,775,857,356,930,33.333333333333336,-0.252,-0.85,0.452
209868,1755607856887,14.4,-61.82,-43.89,843,775,858,373,924,34.48275862068966,-0.252,-0.85,0.452
209898,1755607856917,14.43,-61.84,-43.9,836,779,863,413,932,33.333333333333336,-0.252,-0.851,0.452
209927,1755607856946,14.44,-61.81,-43.91,841,766,863,404,931,34.48275862068966,-0.252,-0.85,0.452
209957,1755607856976,14.5,-61.76,-43.88,843,778,855,343,926,33.333333333333336,-0.254,-0.852,0.452
209987,1755607857005,14.51,-61.74,-43.87,840,769,862,358,933,33.333333333333336,-0.255,-0.852,0.452
210016,1755607857035,14.48,-61.7,-43.85,844,776,852,409,932,34.48275862068966,-0.254,-0.851,0.452
210046,1755607857065,14.47,-61.7,-43.85,850,777,856,386,930,33.333333333333336,-0.252,-0.85,0.452
210075,1755607857094,14.47,-61.69,-43.86,846,778,855,345,934,34.48275862068966,-0.252,-0.849,0.453
210105,1755607857124,14.47,-61.66,-43.86,841,776,862,337,929,33.333333333333336,-0.251,-0.849,0.454
210134,1755607857154,14.48,-61.63,-43.86,837,773,864,370,929,34.48275862068966,-0.253,-0.851,0.454
210154,1755607857173,14.47,-61.63,-43.86,845,774,854,350,930,50.0,-0.254,-0.853,0.453
210184,1755607857203,14.45,-61.6,-43.85,844,768,862,346,929,33.333333333333336,-0.253,-0.851,0.454
210214,1755607857233,14.45,-61.6,-43.86,844,776,866,383,927,33.333333333333336,-0.253,-0.85,0.455
210243,1755607857262,14.46,-61.6,-43.87,846,771,858,378,927,34.48275862068966,-0.255,-0.851,0.454
210273,1755607857291,14.44,-61.58,-43.86,843,774,860,344,928,33.333333333333336,-0.256,-0.85,0.455
210302,1755607857321,14.41,-61.53,-43.83,842,774,860,323,929,34.48275862068966,-0.254,-0.848,0.456
210332,1755607857351,14.45,-61.48,-43.8,847,772,862,373,927,33.333333333333336,-0.253,-0.849,0.458
210361,1755607857380,14.44,-61.49,-43.81,839,772,860,386,926,34.48275862068966,-0.253,-0.849,0.458
210391,1755607857410,14.41,-61.49,-43.81,845,775,859,348,932,33.333333333333336,-0.253,-0.848,0.458
210420,1755607857439,14.44,-61.44,-43.79,838,773,859,351,933,34.48275862068966,-0.254,-0.848,0.458
210450,1755607857469,14.45,-61.42,-43.77,843,776,851,380,926,33.333333333333336,-0.255,-0.849,0.459
210479,1755607857498,14.44,-61.38,-43.78,838,775,861,401,926,34.48275862068966,-0.254,-0.849,0.459
210509,1755607857528,14.42,-61.41,-43.83,843,778,855,370,931,33.333333333333336,-0.253,-0.848,0.457
210538,1755607857557,14.35,-61.53,-43.91,836,779,862,355,930,34.48275862068966,-0.251,-0.846,0.456
210568,1755607857587,14.34,-61.64,-43.97,840,771,861,383,931,33.333333333333336,-0.252,-0.845,0.456
210588,1755607857607,14.36,-61.63,-43.97,842,773,861,349,928,50.0,-0.253,-0.847,0.46
210617,1755607857636,14.42,-61.45,-43.93,841,779,862,377,929,34.48275862068966,-0.256,-0.85,0.461
210647,1755607857666,14.4,-61.39,-43.93,839,781,863,361,935,33.333333333333336,-0.257,-0.85,0.46
210676,1755607857695,14.36,-61.4,-43.92,845,775,857,366,935,34.48275862068966,-0.253,-0.848,0.46
210706,1755607857725,14.4,-61.36,-43.86,842,778,856,327,936,33.333333333333336,-0.253,-0.848,0.46
210736,1755607857755,14.43,-61.28,-43.8,837,778,860,354,931,33.333333333333336,-0.253,-0.847,0.46
210765,1755607857784,14.43,-61.26,-43.77,840,776,855,408,918,34.48275862068966,-0.253,-0.847,0.461
210795,1755607857814,14.42,-61.24,-43.77,840,780,859,403,929,33.333333333333336,-0.253,-0.845,0.46
210824,1755607857843,14.43,-61.22,-43.75,833,780,861,351,929,34.48275862068966,-0.255,-0.847,0.461
210854,1755607857872,14.41,-61.19,-43.72,838,777,860,342,932,33.333333333333336,-0.255,-0.849,0.462
210883,1755607857902,14.4,-61.12,-43.69,844,785,862,352,928,34.48275862068966,-0.253,-0.845,0.464
210913,1755607857932,14.42,-61.1,-43.68,850,778,859,390,927,33.333333333333336,-0.252,-0.842,0.463
210942,1755607857961,14.45,-61.12,-43.68,843,772,859,379,934,34.48275862068966,-0.253,-0.845,0.462
210972,1755607857991,14.42,-61.13,-43.7,847,776,858,345,930,33.333333333333336,-0.254,-0.845,0.464
211002,1755607858020,14.45,-61.09,-43.69,844,775,860,381,924,33.333333333333336,-0.254,-0.844,0.464
211031,1755607858050,14.47,-61.06,-43.68,840,771,861,418,933,34.48275862068966,-0.253,-0.844,0.464
211061,1755607858080,14.46,-61.09,-43.69,844,774,861,390,930,33.333333333333336,-0.254,-0.844,0.464
211091,1755607858110,14.45,-61.1,-43.69,840,774,859,360,925,33.333333333333336,-0.255,-0.844,0.464
211120,1755607858139,14.48,-61.08,-43.68,838,771,861,358,930,34.48275862068966,-0.256,-0.844,0.466
211150,1755607858169,14.53,-61.02,-43.67,843,775,860,395,930,33.333333333333336,-0.255,-0.842,0.465
211179,1755607858198,14.56,-61.01,-43.68,843,778,857,394,932,34.48275862068966,-0.256,-0.843,0.464
211209,1755607858228,14.58,-61.02,-43.68,844,780,859,366,925,33.333333333333336,-0.256,-0.844,0.465
211238,1755607858257,14.62,-60.98,-43.66,843,780,858,343,926,34.48275862068966,-0.257,-0.844,0.466
211268,1755607858287,14.62,-60.96,-43.65,839,777,859,380,929,33.333333333333336,-0.256,-0.844,0.466
211297,1755607858316,14.62,-60.97,-43.62,844,775,858,391,924,34.48275862068966,-0.255,-0.843,0.465
211327,1755607858346,14.65,-60.98,-43.55,848,777,863,390,934,33.333333333333336,-0.257,-0.844,0.466
211347,1755607858366,14.65,-60.97,-43.49,844,774,860,401,927,50.0,-0.258,-0.845,0.466
211377,1755607858396,14.62,-60.97,-43.47,842,779,858,385,931,33.333333333333336,-0.258,-0.843,0.466
211406,1755607858425,14.62,-60.98,-43.47,843,776,859,345,924,34.48275862068966,-0.258,-0.842,0.467
211436,1755607858454,14.63,-61.0,-43.44,844,778,864,346,934,33.333333333333336,-0.26,-0.843,0.466
211465,1755607858484,14.62,-61.01,-43.43,838,779,860,399,923,34.48275862068966,-0.26,-0.843,0.464
211495,1755607858513,14.61,-61.04,-43.43,841,780,855,392,924,33.333333333333336,-0.258,-0.841,0.464
211524,1755607858543,14.64,-61.07,-43.42,840,780,860,358,931,34.48275862068966,-0.258,-0.841,0.466
211554,1755607858573,14.65,-61.02,-43.41,845,769,861,361,932,33.333333333333336,-0.26,-0.843,0.467
211583,1755607858602,14.63,-60.96,-43.39,841,777,858,395,928,34.48275862068966,-0.26,-0.843,0.466
211613,1755607858632,14.62,-60.9,-43.37,837,779,861,398,924,33.333333333333336,-0.26,-0.84,0.467
211642,1755607858661,14.62,-60.83,-43.31,839,780,857,374,925,34.48275862068966,-0.261,-0.839,0.469
211672,1755607858691,14.59,-60.79,-43.32,845,779,860,343,943,33.333333333333336,-0.263,-0.841,0.468
211701,1755607858720,14.53,-60.79,-43.35,846,775,852,386,926,34.48275862068966,-0.262,-0.841,0.468
211731,1755607858750,14.52,-60.79,-43.34,843,775,857,411,931,33.333333333333336,-0.259,-0.84,0.468
211760,1755607858779,14.55,-60.82,-43.34,841,776,867,397,929,34.48275862068966,-0.256,-0.839,0.468
211790,1755607858809,14.56,-60.88,-43.37,842,775,859,357,927,33.333333333333336,-0.256,-0.839,0.469
211819,1755607858838,14.58,-60.9,-43.38,841,776,861,359,923,34.48275862068966,-0.259,-0.84,0.47
211849,1755607858868,14.62,-60.87,-43.38,841,776,863,400,927,33.333333333333336,-0.26,-0.841,0.469
211878,1755607858897,14.63,-60.91,-43.4,844,776,860,409,924,34.48275862068966,-0.259,-0.84,0.469
211908,1755607858927,14.63,-60.95,-43.42,844,780,860,379,924,33.333333333333336,-0.26,-0.84,0.469
211937,1755607858956,14.69,-60.93,-43.41,844,776,860,372,928,34.48275862068966,-0.26,-0.839,0.469
211967,1755607858986,14.72,-60.93,-43.43,843,768,856,391,929,33.333333333333336,-0.262,-0.84,0.468
211997,1755607859015,14.69,-60.97,-43.45,843,769,864,394,925,33.333333333333336,-0.262,-0.842,0.468
212026,1755607859045,14.71,-60.95,-43.45,842,776,860,375,920,34.48275862068966,-0.261,-0.842,0.468
212056,1755607859075,14.73,-60.93,-43.45,839,780,853,359,923,33.333333333333336,-0.259,-0.842,0.467
212085,1755607859104,14.76,-60.93,-43.45,840,777,860,375,928,34.48275862068966,-0.26,-0.844,0.468
212115,1755607859133,14.76,-60.91,-43.46,844,769,856,405,929,33.333333333333336,-0.259,-0.843,0.468
212144,1755607859163,14.78,-60.87,-43.44,839,780,857,400,930,34.48275862068966,-0.258,-0.842,0.468
212174,1755607859193,14.81,-60.84,-43.41,842,775,859,364,930,33.333333333333336,-0.258,-0.843,0.467
212203,1755607859222,14.8,-60.83,-43.4,847,779,857,358,930,34.48275862068966,-0.258,-0.84,0.468
212233,1755607859251,14.83,-60.83,-43.4,842,778,860,402,927,33.333333333333336,-0.26,-0.84,0.468
212262,1755607859281,14.86,-60.82,-43.39,841,776,858,394,927,34.48275862068966,-0.262,-0.843,0.467
212292,1755607859311,14.85,-60.81,-43.37,843,777,862,374,932,33.333333333333336,-0.262,-0.842,0.467
212322,1755607859341,14.86,-60.78,-43.36,845,775,859,356,936,33.333333333333336,-0.263,-0.84,0.468
212351,1755607859370,14.89,-60.75,-43.35,846,779,858,373,928,34.48275862068966,-0.263,-0.842,0.468
212381,1755607859400,14.87,-60.71,-43.34,835,770,858,402,926,33.333333333333336,-0.262,-0.842,0.466
212410,1755607859429,14.85,-60.69,-43.33,845,775,858,395,927,34.48275862068966,-0.26,-0.84,0.466
212440,1755607859459,14.89,-60.68,-43.31,845,776,860,350,932,33.333333333333336,-0.259,-0.84,0.468
212469,1755607859488,14.91,-60.68,-43.32,843,777,862,350,926,34.48275862068966,-0.261,-0.84,0.469
212499,1755607859518,14.93,-60.68,-43.32,845,771,860,390,926,33.333333333333336,-0.263,-0.84,0.469
212529,1755607859548,14.97,-60.63,-43.29,845,773,858,361,929,33.333333333333336,-0.264,-0.841,0.468
212549,1755607859568,14.97,-60.61,-43.27,841,776,858,372,927,50.0,-0.263,-0.839,0.468
212578,1755607859597,14.99,-60.6,-43.28,840,778,858,369,932,34.48275862068966,-0.262,-0.836,0.469
212608,1755607859627,15.04,-60.59,-43.28,841,781,855,343,926,33.333333333333336,-0.263,-0.839,0.469
212638,1755607859657,15.02,-60.58,-43.29,842,770,861,303,928,33.333333333333336,-0.262,-0.839,0.47
212667,1755607859688,15.02,-60.6,-43.31,839,779,854,357,924,34.48275862068966,-0.258,-0.837,0.469
212688,1755607859708,15.05,-60.63,-43.31,844,774,860,356,929,47.61904761904762,-0.259,-0.838,0.47
212718,1755607859737,15.09,-60.63,-43.31,840,775,859,373,923,33.333333333333336,-0.262,-0.839,0.471
212748,1755607859766,15.09,-60.61,-43.32,841,775,860,420,930,33.333333333333336,-0.264,-0.838,0.47
212777,1755607859796,15.11,-60.62,-43.33,840,781,857,353,926,34.48275862068966,-0.264,-0.839,0.469
212807,1755607859826,15.13,-60.61,-43.33,840,771,858,342,934,33.333333333333336,-0.263,-0.839,0.468
212836,1755607859855,15.12,-60.61,-43.35,839,773,859,354,928,34.48275862068966,-0.263,-0.838,0.468
212866,1755607859885,15.13,-60.61,-43.36,841,774,857,401,929,33.333333333333336,-0.264,-0.839,0.467
212895,1755607859914,15.15,-60.62,-43.35,841,772,861,399,932,34.48275862068966,-0.266,-0.84,0.469
212925,1755607859944,15.16,-60.59,-43.36,839,778,866,373,923,33.333333333333336,-0.265,-0.838,0.469
212954,1755607859973,15.2,-60.6,-43.37,843,776,852,357,923,34.48275862068966,-0.265,-0.84,0.468
212984,1755607860003,15.24,-60.55,-43.33,844,775,863,387,930,33.333333333333336,-0.267,-0.841,0.468
213013,1755607860032,15.23,-60.48,-43.32,846,768,856,407,930,34.48275862068966,-0.265,-0.84,0.468
213043,1755607860062,15.23,-60.49,-43.34,840,772,857,392,925,33.333333333333336,-0.263,-0.838,0.468
213072,1755607860091,15.26,-60.5,-43.35,844,777,854,353,931,34.48275862068966,-0.263,-0.838,0.47
213102,1755607860121,15.28,-60.46,-43.35,842,778,857,363,929,33.333333333333336,-0.263,-0.838,0.471
213131,1755607860151,15.29,-60.43,-43.34,837,780,860,406,929,34.48275862068966,-0.263,-0.838,0.469
213161,1755607860180,15.3,-60.46,-43.34,841,772,859,398,928,33.333333333333336,-0.263,-0.837,0.47
213191,1755607860210,15.31,-60.48,-43.36,844,774,859,351,930,33.333333333333336,-0.263,-0.836,0.47
213220,1755607860240,15.33,-60.48,-43.37,842,780,858,353,924,34.48275862068966,-0.265,-0.838,0.47
213240,1755607860259,15.35,-60.47,-43.37,842,774,857,367,926,50.0,-0.266,-0.84,0.47
213270,1755607860289,15.33,-60.46,-43.34,840,778,857,369,928,33.333333333333336,-0.266,-0.841,0.47
213299,1755607860318,15.33,-60.42,-43.33,843,775,857,360,926,34.48275862068966,-0.264,-0.837,0.471
213329,1755607860348,15.37,-60.42,-43.34,842,777,860,387,930,33.333333333333336,-0.266,-0.837,0.472
213388,1755607860407,15.4,-60.36,-43.33,845,777,858,308,926,33.333333333333336,-0.268,-0.836,0.472
213417,1755607860436,15.41,-60.36,-43.32,844,772,877,355,924,34.48275862068966,-0.268,-0.838,0.473
213447,1755607860465,15.41,-60.33,-43.3,847,776,854,391,924,33.333333333333336,-0.267,-0.837,0.472
213476,1755607860495,15.41,-60.28,-43.27,842,770,863,385,929,34.48275862068966,-0.266,-0.836,0.473
213506,1755607860525,15.42,-60.26,-43.26,841,773,860,359,931,33.333333333333336,-0.266,-0.837,0.473
213535,1755607860554,15.42,-60.27,-43.27,842,768,861,373,927,34.48275862068966,-0.262,-0.837,0.473
213565,1755607860584,15.45,-60.3,-43.27,842,769,861,416,918,33.333333333333336,-0.259,-0.834,0.473
213594,1755607860613,15.52,-60.33,-43.27,847,774,855,408,927,34.48275862068966,-0.262,-0.836,0.473
213624,1755607860643,15.54,-60.35,-43.27,838,777,859,356,930,33.333333333333336,-0.267,-0.838,0.472
213653,1755607860673,15.5,-60.36,-43.3,842,771,858,352,929,34.48275862068966,-0.268,-0.84,0.473
213683,1755607860702,15.47,-60.36,-43.3,842,779,859,378,925,33.333333333333336,-0.267,-0.838,0.474
213713,1755607860732,15.47,-60.37,-43.31,837,779,860,409,928,33.333333333333336,-0.264,-0.834,0.471
213742,1755607860761,15.5,-60.39,-43.33,839,776,852,370,928,34.48275862068966,-0.265,-0.836,0.472
213772,1755607860791,15.54,-60.38,-43.32,840,779,855,351,928,33.333333333333336,-0.271,-0.837,0.472
213802,1755607860820,15.53,-60.34,-43.31,844,775,858,365,927,33.333333333333336,-0.27,-0.837,0.471
213831,1755607860850,15.54,-60.34,-43.3,841,770,857,411,929,34.48275862068966,-0.269,-0.836,0.471
213861,1755607860880,15.56,-60.32,-43.27,840,775,860,397,926,33.333333333333336,-0.269,-0.838,0.472
213890,1755607860909,15.54,-60.28,-43.24,844,768,860,312,924,34.48275862068966,-0.268,-0.835,0.472
213920,1755607860939,15.53,-60.3,-43.26,844,774,860,343,924,33.333333333333336,-0.266,-0.835,0.472
213949,1755607860969,15.54,-60.31,-43.26,842,776,860,394,926,34.48275862068966,-0.265,-0.837,0.473
213979,1755607860998,15.54,-60.32,-43.26,847,774,859,403,920,33.333333333333336,-0.265,-0.836,0.473
214009,1755607861028,15.54,-60.34,-43.26,841,774,856,366,926,33.333333333333336,-0.268,-0.836,0.474
214038,1755607861057,15.54,-60.34,-43.25,842,774,857,339,923,34.48275862068966,-0.27,-0.836,0.474
214068,1755607861087,15.54,-60.31,-43.25,841,771,856,366,929,33.333333333333336,-0.271,-0.837,0.473
214097,1755607861116,15.52,-60.27,-43.24,845,779,862,409,922,34.48275862068966,-0.269,-0.836,0.471
214127,1755607861146,15.53,-60.25,-43.22,845,774,859,388,925,33.333333333333336,-0.269,-0.837,0.472
214157,1755607861175,15.53,-60.25,-43.21,843,770,853,343,925,33.333333333333336,-0.269,-0.837,0.474
214186,1755607861205,15.52,-60.2,-43.22,845,779,860,351,925,34.48275862068966,-0.266,-0.834,0.474
214216,1755607861234,15.54,-60.23,-43.25,839,777,861,404,930,33.333333333333336,-0.267,-0.835,0.473
214245,1755607861264,15.55,-60.23,-43.24,844,778,855,403,931,34.48275862068966,-0.27,-0.836,0.474
214275,1755607861293,15.56,-60.19,-43.21,843,775,856,360,929,33.333333333333336,-0.271,-0.835,0.475
214304,1755607861323,15.56,-60.18,-43.21,842,775,858,351,929,34.48275862068966,-0.271,-0.835,0.475
