timestamp_ms,recv_timestamp_ms,pitch,roll,yaw,flex1,flex2,flex3,flex4,flex5,sampling_hz,accel_x,accel_y,accel_z
214334,1755607863632,15.55,-60.19,-43.23,844,776,858,384,928,33.333333333333336,-0.269,-0.834,0.475
214363,1755607863635,15.56,-60.19,-43.24,844,775,857,400,926,34.48275862068966,-0.267,-0.834,0.475
214393,1755607863636,15.58,-60.19,-43.23,838,770,860,374,931,33.333333333333336,-0.267,-0.835,0.476
214422,1755607863639,15.59,-60.18,-43.22,842,777,858,348,925,34.48275862068966,-0.268,-0.836,0.477
214452,1755607863641,15.56,-60.17,-43.23,840,773,855,354,927,33.333333333333336,-0.268,-0.835,0.476
214481,1755607863643,15.58,-60.16,-43.23,844,774,858,394,923,34.48275862068966,-0.267,-0.835,0.475
214511,1755607863645,15.57,-60.2,-43.24,842,776,857,396,926,33.333333333333336,-0.268,-0.835,0.475
214540,1755607863647,15.58,-60.21,-43.24,841,773,854,361,922,34.48275862068966,-0.27,-0.835,0.475
214570,1755607863649,15.59,-60.18,-43.24,845,775,860,344,928,33.333333333333336,-0.27,-0.836,0.477
214599,1755607863651,15.59,-60.15,-43.22,843,777,857,380,924,34.48275862068966,-0.268,-0.836,0.476
214629,1755607863654,15.6,-60.15,-43.21,846,779,858,396,929,33.333333333333336,-0.268,-0.836,0.476
214658,1755607863656,15.58,-60.16,-43.21,843,779,859,367,930,34.48275862068966,-0.268,-0.835,0.476
214688,1755607863658,15.59,-60.16,-43.2,842,781,858,359,928,33.333333333333336,-0.269,-0.834,0.476
214718,1755607863660,15.59,-60.16,-43.21,843,773,860,373,924,33.333333333333336,-0.27,-0.835,0.476
214747,1755607863662,15.6,-60.17,-43.22,845,775,857,410,926,34.48275862068966,-0.27,-0.835,0.475
214777,1755607863664,15.59,-60.19,-43.24,844,775,858,386,927,33.333333333333336,-0.269,-0.835,0.476
214806,1755607863666,15.59,-60.19,-43.23,844,770,861,346,928,34.48275862068966,-0.267,-0.834,0.476
214836,1755607863668,15.63,-60.17,-43.22,842,776,851,352,922,33.333333333333336,-0.269,-0.833,0.477
214865,1755607863670,15.64,-60.21,-43.24,842,773,857,387,926,34.48275862068966,-0.272,-0.835,0.475
214885,1755607863672,15.63,-60.24,-43.25,842,777,857,366,922,50.0,-0.272,-0.838,0.472
214944,1755607863677,15.63,-60.21,-43.22,836,772,860,377,925,34.48275862068966,-0.268,-0.835,0.473
214974,1755607863679,15.64,-60.26,-43.24,843,780,857,355,925,33.333333333333336,-0.268,-0.833,0.475
215004,1755607863682,15.64,-60.26,-43.26,842,768,852,350,927,33.333333333333336,-0.27,-0.834,0.476
215033,1755607863684,15.64,-60.23,-43.28,840,776,859,403,927,34.48275862068966,-0.271,-0.836,0.475
215063,1755607863686,15.61,-60.22,-43.29,845,769,851,399,924,33.333333333333336,-0.272,-0.838,0.475
215093,1755607863688,15.58,-60.24,-43.33,849,774,853,370,923,33.333333333333336,-0.265,-0.833,0.474
215123,1755607863690,15.58,-60.32,-43.42,847,778,862,353,930,33.333333333333336,-0.264,-0.831,0.473
215152,1755607863692,15.58,-60.39,-43.48,842,773,857,357,923,34.48275862068966,-0.267,-0.834,0.473
215182,1755607863694,15.57,-60.39,-43.48,844,769,862,389,929,33.333333333333336,-0.266,-0.836,0.472
215212,1755607863696,15.55,-60.42,-43.48,843,775,868,394,928,33.333333333333336,-0.267,-0.836,0.471
215241,1755607863698,15.56,-60.44,-43.47,844,775,849,363,928,34.48275862068966,-0.267,-0.836,0.472
215271,1755607863701,15.57,-60.44,-43.48,845,770,854,352,930,33.333333333333336,-0.268,-0.837,0.473
215300,1755607863703,15.57,-60.43,-43.49,841,776,860,396,923,34.48275862068966,-0.267,-0.837,0.472
215330,1755607863705,15.58,-60.43,-43.49,844,773,859,404,925,33.333333333333336,-0.266,-0.839,0.471
215360,1755607863707,15.57,-60.44,-43.48,843,775,854,393,926,33.333333333333336,-0.265,-0.838,0.469
215389,1755607863709,15.55,-60.43,-43.48,843,770,856,360,927,34.48275862068966,-0.265,-0.837,0.47
215419,1755607863711,15.55,-60.46,-43.5,842,775,859,323,926,33.333333333333336,-0.265,-0.837,0.471
215448,1755607863713,15.57,-60.49,-43.5,842,780,856,374,925,34.48275862068966,-0.266,-0.839,0.47
215478,1755607863715,15.57,-60.48,-43.47,839,771,858,373,923,33.333333333333336,-0.267,-0.842,0.47
215507,1755607863717,15.53,-60.47,-43.46,842,770,857,343,926,34.48275862068966,-0.267,-0.841,0.47
215537,1755607863720,15.48,-60.44,-43.47,843,774,863,338,924,33.333333333333336,-0.264,-0.836,0.47
215566,1755607863722,15.5,-60.45,-43.48,838,772,858,386,924,34.48275862068966,-0.264,-0.838,0.47
215595,1755607863724,15.49,-60.49,-43.5,839,773,861,405,931,34.48275862068966,-0.263,-0.839,0.469
215625,1755607863726,15.46,-60.55,-43.53,842,778,861,364,922,33.333333333333336,-0.265,-0.841,0.469
215655,1755607863728,15.46,-60.57,-43.56,842,771,860,345,933,33.333333333333336,-0.266,-0.84,0.469
215684,1755607863730,15.46,-60.56,-43.55,837,771,863,387,925,34.48275862068966,-0.265,-0.84,0.469
215714,1755607863733,15.43,-60.55,-43.57,840,779,856,400,928,33.333333333333336,-0.261,-0.838,0.469
215743,1755607863735,15.44,-60.59,-43.61,845,769,856,380,923,34.48275862068966,-0.262,-0.838,0.469
215773,1755607863737,15.43,-60.62,-43.62,840,775,855,343,930,33.333333333333336,-0.264,-0.841,0.47
215803,1755607863739,15.42,-60.6,-43.63,843,772,855,349,921,33.333333333333336,-0.263,-0.839,0.469
215832,1755607863741,15.4,-60.61,-43.65,841,769,855,391,926,34.48275862068966,-0.261,-0.838,0.47
215862,1755607863743,15.43,-60.63,-43.66,842,779,877,387,929,33.333333333333336,-0.261,-0.839,0.469
215891,1755607863745,15.41,-60.68,-43.68,840,766,855,346,925,34.48275862068966,-0.263,-0.841,0.468
215921,1755607863747,15.38,-60.69,-43.71,840,773,857,346,929,33.333333333333336,-0.261,-0.84,0.469
215950,1755607863749,15.38,-60.68,-43.72,839,773,856,371,927,34.48275862068966,-0.26,-0.839,0.469
215980,1755607863751,15.39,-60.68,-43.72,845,766,856,407,933,33.333333333333336,-0.259,-0.839,0.468
216009,1755607863753,15.39,-60.67,-43.73,840,774,852,388,921,34.48275862068966,-0.26,-0.841,0.467
216039,1755607863755,15.36,-60.69,-43.73,844,776,857,364,927,33.333333333333336,-0.262,-0.841,0.467
216068,1755607863757,15.35,-60.68,-43.73,839,780,860,372,928,34.48275862068966,-0.261,-0.841,0.467
216098,1755607863759,15.36,-60.69,-43.73,851,776,854,404,930,33.333333333333336,-0.259,-0.841,0.467
216128,1755607863761,15.36,-60.69,-43.73,841,777,849,380,927,33.333333333333336,-0.259,-0.84,0.466
216148,1755607863763,15.36,-60.68,-43.73,846,769,859,373,925,50.0,-0.26,-0.841,0.467
216178,1755607863766,15.34,-60.65,-43.72,842,775,846,383,927,33.333333333333336,-0.26,-0.842,0.467
216207,1755607863767,15.34,-60.65,-43.72,843,770,858,348,933,34.48275862068966,-0.257,-0.841,0.466
216237,1755607863769,15.34,-60.69,-43.74,840,773,854,357,925,33.333333333333336,-0.256,-0.839,0.466
216266,1755607863772,15.34,-60.72,-43.75,843,775,855,391,930,34.48275862068966,-0.26,-0.841,0.466
216286,1755607863774,15.34,-60.73,-43.75,846,774,855,347,931,50.0,-0.263,-0.844,0.466
216316,1755607863776,15.29,-60.73,-43.76,841,780,856,385,929,33.333333333333336,-0.261,-0.843,0.465
216346,1755607863778,15.19,-60.79,-43.82,845,781,857,408,928,33.333333333333336,-0.259,-0.841,0.462
216375,1755607863781,15.03,-60.97,-43.89,843,779,858,378,930,34.48275862068966,-0.263,-0.847,0.463
216395,1755607863782,14.89,-61.05,-43.92,846,775,857,407,931,50.0,-0.266,-0.85,0.466
216425,1755607863785,14.72,-60.95,-43.91,843,777,858,324,937,33.333333333333336,-0.262,-0.847,0.468
216455,1755607863786,14.71,-60.92,-43.95,844,776,855,322,931,33.333333333333336,-0.25,-0.837,0.469
216484,1755607863789,14.83,-61.01,-44.01,839,773,855,357,929,34.48275862068966,-0.248,-0.835,0.467
216514,1755607863791,14.87,-61.11,-44.08,845,780,858,392,931,33.333333333333336,-0.253,-0.843,0.466
216544,1755607863793,14.87,-61.05,-44.07,841,773,855,385,924,33.333333333333336,-0.253,-0.846,0.467
216573,1755607863795,14.96,-60.99,-44.02,845,777,864,360,928,34.48275862068966,-0.252,-0.846,0.467
216603,1755607863797,15.0,-60.97,-44.03,843,775,856,356,926,33.333333333333336,-0.253,-0.845,0.466
216632,1755607863799,15.01,-60.95,-44.04,847,775,857,407,927,34.48275862068966,-0.255,-0.844,0.465
216662,1755607863801,15.05,-60.88,-44.03,841,770,853,398,937,33.333333333333336,-0.256,-0.847,0.467
216691,1755607863804,15.11,-60.84,-44.01,845,769,856,363,927,34.48275862068966,-0.253,-0.847,0.465
216721,1755607863805,15.1,-60.82,-44.0,842,777,856,352,924,33.333333333333336,-0.255,-0.849,0.464
216750,1755607863807,15.06,-60.77,-43.97,840,770,851,392,924,34.48275862068966,-0.254,-0.848,0.466
216780,1755607863810,15.11,-60.69,-43.95,845,778,854,412,923,33.333333333333336,-0.252,-0.844,0.466
216810,1755607863829,15.11,-60.66,-43.94,850,777,857,394,924,33.333333333333336,-0.255,-0.846,0.467
216839,1755607863858,15.09,-60.6,-43.91,844,767,855,368,926,34.48275862068966,-0.255,-0.847,0.467
216869,1755607863888,15.07,-60.53,-43.89,845,774,854,369,930,33.333333333333336,-0.253,-0.844,0.468
216898,1755607863917,15.08,-60.46,-43.88,846,769,855,404,928,34.48275862068966,-0.252,-0.841,0.47
216928,1755607863947,15.08,-60.46,-43.85,841,774,860,401,926,33.333333333333336,-0.252,-0.84,0.471
216958,1755607863976,15.06,-60.45,-43.85,840,780,857,363,926,33.333333333333336,-0.254,-0.838,0.471
216987,1755607864006,15.09,-60.44,-43.83,844,776,857,361,932,34.48275862068966,-0.256,-0.837,0.471
217017,1755607864036,15.11,-60.42,-43.81,845,785,850,397,928,33.333333333333336,-0.255,-0.838,0.471
217046,1755607864065,15.11,-60.43,-43.82,843,768,855,416,927,34.48275862068966,-0.256,-0.838,0.472
217076,1755607864095,15.09,-60.45,-43.82,843,777,853,387,927,33.333333333333336,-0.257,-0.84,0.473
217105,1755607864124,15.09,-60.44,-43.81,844,775,854,344,931,34.48275862068966,-0.255,-0.84,0.473
217135,1755607864154,15.07,-60.43,-43.8,844,776,853,363,926,33.333333333333336,-0.255,-0.839,0.474
217164,1755607864184,15.06,-60.42,-43.77,840,773,855,391,934,34.48275862068966,-0.254,-0.839,0.474
217194,1755607864213,15.1,-60.41,-43.73,844,774,850,403,926,33.333333333333336,-0.254,-0.838,0.473
217224,1755607864243,15.14,-60.42,-43.71,844,774,852,370,922,33.333333333333336,-0.255,-0.837,0.472
217312,1755607864331,15.15,-60.53,-43.73,842,769,857,401,921,34.48275862068966,-0.264,-0.844,0.474
217342,1755607864361,15.11,-60.48,-43.71,838,779,857,376,922,33.333333333333336,-0.264,-0.844,0.474
217371,1755607864390,15.1,-60.44,-43.68,844,771,852,365,927,34.48275862068966,-0.262,-0.841,0.472
217401,1755607864420,15.13,-60.44,-43.66,837,772,854,383,930,33.333333333333336,-0.262,-0.839,0.472
217430,1755607864449,15.13,-60.45,-43.67,840,774,859,405,926,34.48275862068966,-0.262,-0.839,0.472
217460,1755607864479,15.12,-60.41,-43.68,838,776,858,401,928,33.333333333333336,-0.263,-0.84,0.472
217489,1755607864509,15.13,-60.35,-43.65,838,780,856,322,926,34.48275862068966,-0.261,-0.841,0.471
217519,1755607864539,15.13,-60.35,-43.64,840,776,851,333,929,33.333333333333336,-0.259,-0.84,0.472
217540,1755607864558,15.13,-60.35,-43.66,839,767,858,357,935,47.61904761904762,-0.257,-0.838,0.472
217569,1755607864588,15.15,-60.37,-43.68,840,773,855,353,922,34.48275862068966,-0.257,-0.839,0.472
217599,1755607864618,15.16,-60.37,-43.69,846,780,857,392,928,33.333333333333336,-0.256,-0.838,0.473
217628,1755607864647,15.2,-60.37,-43.69,839,777,857,407,924,34.48275862068966,-0.255,-0.838,0.473
217658,1755607864677,15.24,-60.44,-43.7,839,773,855,355,924,33.333333333333336,-0.259,-0.839,0.472
217687,1755607864706,15.23,-60.48,-43.7,842,774,851,305,924,34.48275862068966,-0.261,-0.841,0.472
217717,1755607864736,15.19,-60.47,-43.68,841,770,856,356,922,33.333333333333336,-0.261,-0.842,0.471
217746,1755607864766,15.16,-60.52,-43.69,842,774,856,393,928,34.48275862068966,-0.259,-0.838,0.471
217776,1755607864795,15.17,-60.56,-43.7,835,770,857,363,928,33.333333333333336,-0.258,-0.837,0.472
217806,1755607864825,15.18,-60.58,-43.71,842,772,857,326,926,33.333333333333336,-0.259,-0.839,0.471
217865,1755607864884,15.19,-60.57,-43.72,840,768,857,403,926,34.48275862068966,-0.261,-0.84,0.472
217895,1755607864915,15.25,-60.51,-43.7,836,774,854,416,925,33.333333333333336,-0.263,-0.842,0.471
217915,1755607864934,15.27,-60.48,-43.68,844,781,852,381,926,50.0,-0.265,-0.843,0.469
217945,1755607864964,15.24,-60.44,-43.67,839,772,858,396,916,33.333333333333336,-0.263,-0.84,0.467
217974,1755607864993,15.27,-60.45,-43.65,839,777,859,355,926,34.48275862068966,-0.264,-0.84,0.466
218004,1755607865023,15.26,-60.43,-43.63,840,773,854,352,929,33.333333333333336,-0.263,-0.841,0.469
218033,1755607865052,15.28,-60.37,-43.6,841,774,857,397,929,34.48275862068966,-0.262,-0.839,0.471
218063,1755607865082,15.29,-60.36,-43.62,844,776,852,416,927,33.333333333333336,-0.26,-0.837,0.47
218092,1755607865111,15.28,-60.4,-43.66,843,775,860,387,923,34.48275862068966,-0.26,-0.837,0.471
218122,1755607865141,15.29,-60.38,-43.68,837,776,856,354,926,33.333333333333336,-0.26,-0.837,0.471
218151,1755607865170,15.33,-60.35,-43.69,843,773,854,356,929,34.48275862068966,-0.263,-0.84,0.471
218181,1755607865200,15.29,-60.34,-43.7,840,775,857,409,925,33.333333333333336,-0.262,-0.839,0.473
218210,1755607865230,15.31,-60.35,-43.69,846,767,853,407,924,34.48275862068966,-0.263,-0.838,0.472
218240,1755607865259,15.3,-60.34,-43.7,842,776,859,351,928,33.333333333333336,-0.262,-0.839,0.473
218270,1755607865289,15.3,-60.29,-43.69,840,772,857,337,926,33.333333333333336,-0.261,-0.837,0.473
218299,1755607865318,15.29,-60.28,-43.71,837,778,855,376,928,34.48275862068966,-0.259,-0.837,0.472
218329,1755607865348,15.31,-60.27,-43.7,840,775,854,391,923,33.333333333333336,-0.261,-0.84,0.472
218358,1755607865377,15.29,-60.26,-43.68,839,774,845,373,923,34.48275862068966,-0.262,-0.841,0.472
218388,1755607865407,15.26,-60.26,-43.69,839,774,854,348,929,33.333333333333336,-0.261,-0.838,0.473
218417,1755607865437,15.27,-60.27,-43.71,842,768,850,370,927,34.48275862068966,-0.262,-0.838,0.473
218447,1755607865466,15.26,-60.25,-43.71,843,768,854,412,927,33.333333333333336,-0.263,-0.839,0.473
218477,1755607865497,15.24,-60.23,-43.71,837,775,852,393,921,33.333333333333336,-0.263,-0.839,0.473
218497,1755607865517,15.23,-60.21,-43.69,838,776,854,385,929,50.0,-0.262,-0.839,0.473
218527,1755607865546,15.25,-60.19,-43.68,841,775,851,393,924,33.333333333333336,-0.261,-0.837,0.473
218557,1755607865576,15.25,-60.2,-43.69,841,771,847,354,931,33.333333333333336,-0.261,-0.837,0.473
218586,1755607865605,15.25,-60.2,-43.69,837,778,855,357,924,34.48275862068966,-0.262,-0.837,0.475
218616,1755607865635,15.28,-60.16,-43.69,836,776,855,390,924,33.333333333333336,-0.262,-0.836,0.476
218645,1755607865664,15.28,-60.16,-43.7,834,768,855,401,927,34.48275862068966,-0.263,-0.835,0.475
218675,1755607865694,15.26,-60.17,-43.72,843,769,846,369,928,33.333333333333336,-0.264,-0.837,0.476
218704,1755607865723,15.26,-60.14,-43.7,845,780,852,358,924,34.48275862068966,-0.263,-0.838,0.476
218734,1755607865753,15.28,-60.11,-43.71,841,770,853,382,929,33.333333333333336,-0.26,-0.835,0.476
218793,1755607865812,15.28,-60.13,-43.73,848,769,850,383,926,33.333333333333336,-0.26,-0.836,0.476
218822,1755607865841,15.27,-60.1,-43.74,839,777,853,353,927,34.48275862068966,-0.259,-0.835,0.477
218852,1755607865871,15.28,-60.13,-43.74,842,776,860,321,928,33.333333333333336,-0.259,-0.836,0.477
218881,1755607865900,15.29,-60.11,-43.73,846,780,846,384,929,34.48275862068966,-0.263,-0.836,0.477
218911,1755607865930,15.26,-60.07,-43.74,845,781,852,383,926,33.333333333333336,-0.263,-0.835,0.477
218940,1755607865959,15.26,-60.07,-43.75,843,774,857,347,930,34.48275862068966,-0.262,-0.836,0.476
218970,1755607865989,15.25,-60.08,-43.76,842,779,855,351,928,33.333333333333336,-0.26,-0.836,0.476
218999,1755607866018,15.27,-60.08,-43.75,843,778,851,372,930,34.48275862068966,-0.26,-0.837,0.476
219029,1755607866048,15.26,-60.06,-43.75,842,774,856,399,934,33.333333333333336,-0.261,-0.836,0.478
219058,1755607866077,15.28,-60.04,-43.75,842,775,853,377,926,34.48275862068966,-0.261,-0.835,0.477
219088,1755607866107,15.27,-60.04,-43.75,844,773,855,339,943,33.333333333333336,-0.262,-0.836,0.477
219118,1755607866137,15.25,-60.03,-43.74,843,776,853,362,923,33.333333333333336,-0.261,-0.836,0.476
219147,1755607866166,15.26,-60.02,-43.73,847,773,851,392,928,34.48275862068966,-0.26,-0.835,0.477
219177,1755607866196,15.27,-60.04,-43.74,842,768,854,401,925,33.333333333333336,-0.261,-0.834,0.477
219206,1755607866225,15.27,-60.02,-43.74,843,776,852,363,931,34.48275862068966,-0.262,-0.835,0.477
219236,1755607866255,15.27,-60.0,-43.74,840,779,854,357,922,33.333333333333336,-0.263,-0.836,0.477
219265,1755607866284,15.25,-60.0,-43.73,843,771,853,387,929,34.48275862068966,-0.261,-0.836,0.477
219295,1755607866314,15.26,-60.0,-43.74,846,777,857,387,927,33.333333333333336,-0.26,-0.833,0.477
219324,1755607866343,15.26,-60.02,-43.76,842,776,853,368,927,34.48275862068966,-0.262,-0.833,0.477
219354,1755607866373,15.26,-60.0,-43.76,843,780,856,345,922,33.333333333333336,-0.265,-0.836,0.477
219383,1755607866402,15.22,-59.96,-43.76,841,768,853,383,925,34.48275862068966,-0.262,-0.836,0.478
219413,1755607866432,15.26,-59.98,-43.74,837,774,853,406,928,33.333333333333336,-0.262,-0.836,0.481
219442,1755607866461,15.32,-59.99,-43.72,838,776,857,379,931,34.48275862068966,-0.267,-0.839,0.481
219472,1755607866491,15.29,-59.93,-43.71,845,772,854,348,922,33.333333333333336,-0.264,-0.835,0.477
219501,1755607866521,15.29,-59.91,-43.72,840,778,855,356,923,34.48275862068966,-0.26,-0.833,0.474
219531,1755607866550,15.31,-59.92,-43.71,843,772,857,394,930,33.333333333333336,-0.26,-0.835,0.476
219561,1755607866582,15.3,-59.92,-43.69,844,778,856,396,925,33.333333333333336,-0.261,-0.837,0.478
219582,1755607866602,15.29,-59.89,-43.67,846,770,854,360,931,47.61904761904762,-0.263,-0.837,0.48
219612,1755607866631,15.28,-59.84,-43.67,845,776,852,381,925,33.333333333333336,-0.261,-0.833,0.48
219642,1755607866661,15.3,-59.82,-43.71,843,784,856,375,922,33.333333333333336,-0.259,-0.829,0.478
219671,1755607866690,15.31,-59.85,-43.75,837,779,854,300,922,34.48275862068966,-0.259,-0.831,0.477
219701,1755607866720,15.32,-59.88,-43.76,845,778,856,349,925,33.333333333333336,-0.262,-0.833,0.478
219760,1755607866780,15.36,-59.89,-43.77,838,779,852,350,924,34.48275862068966,-0.263,-0.832,0.479
219780,1755607866799,15.37,-59.92,-43.77,840,779,853,352,923,50.0,-0.265,-0.833,0.479
219810,1755607866829,15.35,-59.92,-43.78,837,776,858,376,924,33.333333333333336,-0.267,-0.835,0.48
219839,1755607866858,15.32,-59.89,-43.77,846,777,850,364,925,34.48275862068966,-0.264,-0.835,0.478
219869,1755607866888,15.34,-59.88,-43.77,845,775,860,366,925,33.333333333333336,-0.26,-0.833,0.477
219898,1755607866917,15.37,-59.91,-43.77,840,780,855,392,928,34.48275862068966,-0.26,-0.834,0.48
219928,1755607866947,15.36,-59.9,-43.79,851,776,849,401,927,33.333333333333336,-0.263,-0.835,0.479
219957,1755607866976,15.33,-59.89,-43.78,844,774,857,362,924,34.48275862068966,-0.262,-0.834,0.478
219987,1755607867006,15.36,-59.9,-43.76,843,774,860,362,928,33.333333333333336,-0.264,-0.836,0.479
220016,1755607867035,15.33,-59.88,-43.74,844,776,854,392,922,34.48275862068966,-0.258,-0.833,0.479
220046,1755607867065,15.32,-59.87,-43.75,843,774,848,407,928,33.333333333333336,-0.256,-0.831,0.479
220076,1755607867095,15.37,-59.88,-43.74,840,773,855,384,929,33.333333333333336,-0.261,-0.834,0.48
220105,1755607867125,15.34,-59.84,-43.74,844,774,854,338,921,34.48275862068966,-0.262,-0.835,0.48
220125,1755607867145,15.31,-59.81,-43.74,839,777,862,384,927,50.0,-0.259,-0.834,0.478
220155,1755607867174,15.31,-59.83,-43.74,843,774,856,353,926,33.333333333333336,-0.259,-0.833,0.48
220184,1755607867204,15.33,-59.82,-43.74,840,775,849,350,926,34.48275862068966,-0.261,-0.833,0.481
220214,1755607867233,15.28,-59.79,-43.75,842,776,857,391,925,33.333333333333336,-0.263,-0.834,0.479
220244,1755607867263,15.24,-59.75,-43.74,843,776,865,400,919,33.333333333333336,-0.263,-0.835,0.481
220273,1755607867292,15.25,-59.75,-43.73,844,776,856,355,930,34.48275862068966,-0.261,-0.834,0.482
220303,1755607867322,15.26,-59.75,-43.74,837,781,853,348,925,33.333333333333336,-0.259,-0.831,0.479
220332,1755607867351,15.28,-59.75,-43.76,844,775,853,384,927,34.48275862068966,-0.258,-0.831,0.478
220362,1755607867381,15.29,-59.75,-43.75,848,783,856,399,924,33.333333333333336,-0.263,-0.835,0.48
220392,1755607867411,15.27,-59.69,-43.73,843,776,850,381,929,33.333333333333336,-0.264,-0.836,0.482
220421,1755607867440,15.25,-59.64,-43.73,844,770,861,354,926,34.48275862068966,-0.26,-0.832,0.481
220451,1755607867470,15.28,-59.67,-44.19,844,769,854,365,924,33.333333333333336,-0.263,-0.832,0.482
220480,1755607867499,15.27,-59.67,-44.17,845,777,854,395,925,34.48275862068966,-0.267,-0.834,0.482
220510,1755607867529,15.22,-59.62,-44.15,846,778,856,383,921,33.333333333333336,-0.265,-0.833,0.481
220539,1755607867558,15.21,-59.63,-44.16,844,768,856,349,922,34.48275862068966,-0.26,-0.83,0.483
220569,1755607867588,15.26,-59.65,-44.16,839,774,857,308,930,33.333333333333336,-0.261,-0.831,0.483
220598,1755607867617,15.21,-59.7,-44.17,846,776,853,373,926,34.48275862068966,-0.266,-0.835,0.479
220657,1755607867676,15.13,-59.72,-44.2,845,774,860,370,924,34.48275862068966,-0.259,-0.831,0.483
220687,1755607867706,15.21,-59.78,-44.23,844,775,854,359,920,33.333333333333336,-0.259,-0.83,0.481
220716,1755607867735,15.2,-59.78,-44.24,842,778,853,371,933,34.48275862068966,-0.265,-0.834,0.48
220746,1755607867765,15.13,-59.75,-44.24,844,775,857,400,925,33.333333333333336,-0.266,-0.834,0.48
220775,1755607867794,15.16,-59.74,-44.23,839,778,856,376,926,34.48275862068966,-0.262,-0.83,0.481
220805,1755607867824,15.21,-59.76,-44.25,844,768,850,353,930,33.333333333333336,-0.259,-0.829,0.479
220834,1755607867853,15.24,-59.79,-44.28,840,780,849,352,926,34.48275862068966,-0.262,-0.833,0.48
220864,1755607867883,15.25,-59.77,-44.27,843,775,850,400,925,33.333333333333336,-0.265,-0.836,0.48
220893,1755607867912,15.25,-59.75,-44.26,843,775,856,394,945,34.48275862068966,-0.261,-0.832,0.48
220923,1755607867942,15.28,-59.76,-44.27,845,774,855,347,924,33.333333333333336,-0.26,-0.831,0.479
220953,1755607867971,15.31,-59.78,-44.28,844,776,854,355,922,33.333333333333336,-0.262,-0.832,0.48
220982,1755607868001,15.33,-59.76,-44.27,844,770,853,385,929,34.48275862068966,-0.267,-0.835,0.48
221011,1755607868031,15.32,-59.72,-44.25,838,775,857,392,925,34.48275862068966,-0.264,-0.833,0.479
221041,1755607868060,15.33,-59.73,-44.26,843,778,851,331,922,33.333333333333336,-0.26,-0.83,0.478
221070,1755607868089,15.36,-59.77,-44.26,842,776,856,340,925,34.48275862068966,-0.262,-0.833,0.479
221100,1755607868119,15.36,-59.76,-44.25,844,776,847,371,926,33.333333333333336,-0.264,-0.835,0.48
221129,1755607868148,15.34,-59.71,-44.24,841,778,860,406,928,34.48275862068966,-0.263,-0.834,0.479
221159,1755607868178,15.36,-59.71,-44.25,841,771,851,385,928,33.333333333333336,-0.262,-0.833,0.48
221188,1755607868208,15.38,-59.73,-44.27,840,772,851,305,927,34.48275862068966,-0.262,-0.832,0.48
221218,1755607868237,15.39,-59.72,-44.28,839,773,858,340,922,33.333333333333336,-0.262,-0.831,0.481
221248,1755607868267,15.4,-59.72,-44.29,846,779,853,385,929,33.333333333333336,-0.265,-0.833,0.48
221277,1755607868296,15.4,-59.7,-44.28,848,779,852,385,923,34.48275862068966,-0.265,-0.835,0.479
221307,1755607868326,15.39,-59.69,-44.28,840,776,856,353,929,33.333333333333336,-0.263,-0.834,0.48
221336,1755607868355,15.39,-59.69,-44.29,845,775,852,342,927,34.48275862068966,-0.262,-0.832,0.479
221366,1755607868385,15.43,-59.75,-44.3,841,776,851,363,930,33.333333333333336,-0.263,-0.834,0.479
221395,1755607868414,15.43,-59.76,-44.31,839,778,846,393,926,34.48275862068966,-0.261,-0.832,0.479
221425,1755607868444,15.43,-59.74,-44.32,844,778,850,386,923,33.333333333333336,-0.262,-0.832,0.48
221454,1755607868473,15.45,-59.74,-44.31,843,776,853,346,927,34.48275862068966,-0.264,-0.836,0.479
221484,1755607868503,15.41,-59.74,-44.31,841,781,853,359,921,33.333333333333336,-0.262,-0.835,0.479
221513,1755607868532,15.41,-59.72,-44.31,843,777,852,406,924,34.48275862068966,-0.259,-0.832,0.48
221543,1755607868562,15.46,-59.71,-44.31,840,777,856,382,935,33.333333333333336,-0.261,-0.833,0.482
221572,1755607868592,15.44,-59.72,-44.31,845,777,853,348,923,34.48275862068966,-0.263,-0.833,0.481
221602,1755607868621,15.44,-59.72,-44.32,843,774,857,353,922,33.333333333333336,-0.261,-0.831,0.48
221632,1755607868651,15.45,-59.74,-44.32,840,767,856,397,926,33.333333333333336,-0.262,-0.832,0.48
221652,1755607868671,15.46,-59.74,-44.31,842,774,853,356,924,50.0,-0.262,-0.833,0.481
221682,1755607868701,15.46,-59.74,-44.31,844,779,854,387,915,33.333333333333336,-0.262,-0.833,0.48
221711,1755607868730,15.45,-59.77,-44.34,843,774,854,408,926,34.48275862068966,-0.261,-0.832,0.481
221740,1755607868760,15.48,-59.81,-44.35,840,773,851,373,918,34.48275862068966,-0.262,-0.833,0.48
221800,1755607868819,15.42,-59.82,-44.35,837,769,853,350,926,33.333333333333336,-0.262,-0.833,0.48
221829,1755607868848,15.43,-59.84,-44.38,839,773,853,402,922,34.48275862068966,-0.262,-0.831,0.479
221859,1755607868878,15.43,-59.89,-44.41,846,774,855,378,925,33.333333333333336,-0.262,-0.833,0.478
221888,1755607868907,15.42,-59.88,-44.4,840,768,854,343,925,34.48275862068966,-0.262,-0.834,0.478
221918,1755607868937,15.41,-59.88,-44.4,841,775,851,358,926,33.333333333333336,-0.263,-0.835,0.479
221947,1755607868966,15.4,-59.89,-44.42,842,770,855,396,924,34.48275862068966,-0.262,-0.835,0.479
221977,1755607868996,15.39,-59.86,-44.43,843,770,857,397,926,33.333333333333336,-0.26,-0.833,0.479
222006,1755607869025,15.41,-59.84,-44.42,844,775,843,355,932,34.48275862068966,-0.26,-0.834,0.478
222036,1755607869055,15.43,-59.84,-44.41,839,778,857,348,925,33.333333333333336,-0.26,-0.835,0.479
222065,1755607869084,15.42,-59.84,-44.42,844,776,853,390,925,34.48275862068966,-0.26,-0.834,0.479
222095,1755607869114,15.43,-59.85,-44.42,841,779,856,415,927,33.333333333333336,-0.261,-0.834,0.479
222125,1755607869143,15.45,-59.85,-44.4,840,774,849,388,920,33.333333333333336,-0.261,-0.834,0.479
222154,1755607869173,15.46,-59.88,-44.41,843,770,851,344,924,34.48275862068966,-0.262,-0.835,0.479
222183,1755607869202,15.44,-59.89,-44.42,840,770,856,350,928,34.48275862068966,-0.261,-0.834,0.478
222213,1755607869232,15.46,-59.91,-44.42,840,781,851,395,926,33.333333333333336,-0.26,-0.833,0.478
222242,1755607869261,15.48,-59.92,-44.42,845,774,856,386,923,34.48275862068966,-0.263,-0.841,0.48
222272,1755607869291,15.49,-59.9,-44.4,839,780,854,360,923,33.333333333333336,-0.264,-0.842,0.48
222301,1755607869320,15.43,-59.89,-44.4,844,775,854,363,927,34.48275862068966,-0.261,-0.838,0.478
222331,1755607869350,15.46,-59.89,-44.38,843,769,853,398,923,33.333333333333336,-0.261,-0.836,0.477
222361,1755607869380,15.46,-59.93,-44.38,844,781,856,398,926,33.333333333333336,-0.264,-0.839,0.477
222390,1755607869410,15.42,-59.91,-44.4,838,779,853,376,926,34.48275862068966,-0.262,-0.837,0.478
222449,1755607869468,15.45,-59.91,-44.38,841,774,857,365,926,34.48275862068966,-0.263,-0.837,0.478
222479,1755607869498,15.41,-59.89,-44.37,843,775,845,387,923,33.333333333333336,-0.265,-0.837,0.479
222508,1755607869527,15.39,-59.83,-44.38,841,768,866,390,926,34.48275862068966,-0.261,-0.834,0.477
222538,1755607869557,15.4,-59.86,-44.37,843,780,857,353,917,33.333333333333336,-0.261,-0.835,0.477
222567,1755607869587,15.38,-59.86,-44.35,842,768,849,357,928,34.48275862068966,-0.265,-0.836,0.478
222597,1755607869617,15.32,-59.8,-44.35,850,775,850,399,931,33.333333333333336,-0.266,-0.835,0.479
222627,1755607869646,15.26,-59.74,-44.34,841,774,856,419,930,33.333333333333336,-0.265,-0.834,0.479
222657,1755607869676,15.22,-59.72,-44.33,841,778,856,368,918,33.333333333333336,-0.262,-0.835,0.48
222686,1755607869705,15.23,-59.67,-44.3,843,779,853,353,914,34.48275862068966,-0.261,-0.834,0.481
222716,1755607869735,15.24,-59.64,-44.28,841,774,854,368,921,33.333333333333336,-0.26,-0.835,0.482
222745,1755607869764,15.26,-59.65,-44.25,844,774,853,400,923,34.48275862068966,-0.261,-0.833,0.481
222775,1755607869794,15.25,-59.64,-44.24,852,776,855,343,919,33.333333333333336,-0.261,-0.832,0.481
222804,1755607869823,15.24,-59.63,-44.24,844,775,855,338,923,34.48275862068966,-0.264,-0.834,0.483
222834,1755607869853,15.22,-59.59,-44.23,843,769,851,344,925,33.333333333333336,-0.262,-0.832,0.484
222863,1755607869882,15.26,-59.57,-44.22,843,777,848,386,921,34.48275862068966,-0.262,-0.832,0.483
222893,1755607869912,15.25,-59.59,-44.22,842,779,855,403,926,33.333333333333336,-0.264,-0.833,0.483
222922,1755607869941,15.2,-59.57,-44.19,841,780,848,359,923,34.48275862068966,-0.265,-0.834,0.484
222952,1755607869971,15.18,-59.53,-44.17,840,779,853,351,925,33.333333333333336,-0.263,-0.832,0.485
222981,1755607870001,15.19,-59.54,-44.17,838,771,855,398,926,34.48275862068966,-0.262,-0.83,0.484
223001,1755607870021,15.22,-59.55,-44.17,843,777,853,364,920,50.0,-0.263,-0.83,0.484
223031,1755607870050,15.25,-59.56,-44.18,840,780,857,390,925,33.333333333333336,-0.266,-0.832,0.485
223061,1755607870080,15.21,-59.56,-44.21,845,779,854,392,924,33.333333333333336,-0.263,-0.831,0.485
