timestamp_ms,recv_timestamp_ms,pitch,roll,yaw,flex1,flex2,flex3,flex4,flex5,sampling_hz,accel_x,accel_y,accel_z
125426,1755607255793,38.8,-152.39,-18.61,801,778,813,388,852,33.333333333333336,-0.638,-0.362,-0.684
125456,1755607255795,38.91,-152.29,-18.53,800,779,818,412,856,33.333333333333336,-0.642,-0.361,-0.679
125485,1755607255798,39.01,-152.17,-18.46,799,767,815,372,853,34.48275862068966,-0.638,-0.358,-0.682
125515,1755607255800,39.08,-152.13,-18.44,801,772,814,360,853,33.333333333333336,-0.636,-0.36,-0.688
125545,1755607255802,39.08,-152.16,-18.4,795,774,813,367,854,33.333333333333336,-0.636,-0.362,-0.689
125574,1755607255804,39.07,-152.15,-18.34,796,772,815,411,856,34.48275862068966,-0.637,-0.359,-0.686
125604,1755607255806,39.06,-152.08,-18.3,797,775,811,382,851,33.333333333333336,-0.631,-0.356,-0.688
125634,1755607255808,39.06,-152.08,-18.3,794,772,808,346,855,33.333333333333336,-0.633,-0.358,-0.69
125664,1755607255810,39.02,-152.13,-18.32,799,775,818,348,853,33.333333333333336,-0.634,-0.358,-0.69
125693,1755607255812,38.96,-151.72,-18.29,800,769,815,390,856,34.48275862068966,-0.639,-0.357,-0.683
125752,1755607255816,39.09,-151.66,-18.29,797,768,813,386,856,34.48275862068966,-0.638,-0.36,-0.686
125782,1755607255818,39.07,-151.68,-18.27,799,775,814,306,856,33.333333333333336,-0.638,-0.361,-0.687
125811,1755607255820,39.08,-151.66,-18.26,800,767,813,357,852,34.48275862068966,-0.635,-0.359,-0.684
125841,1755607255822,39.15,-151.64,-18.25,795,779,814,408,855,33.333333333333336,-0.638,-0.359,-0.683
125900,1755607255827,39.27,-151.68,-18.26,797,770,810,362,854,34.48275862068966,-0.636,-0.358,-0.688
125930,1755607255829,39.26,-151.7,-18.27,795,773,817,340,857,33.333333333333336,-0.635,-0.359,-0.688
125950,1755607255831,39.26,-151.71,-18.27,797,775,810,377,854,50.0,-0.634,-0.359,-0.686
125980,1755607255856,39.25,-151.71,-18.27,797,772,817,353,854,33.333333333333336,-0.632,-0.359,-0.688
126009,1755607255886,39.24,-151.78,-18.27,798,774,814,389,855,34.48275862068966,-0.634,-0.362,-0.687
126068,1755607255945,39.24,-151.8,-18.26,800,773,816,329,851,34.48275862068966,-0.634,-0.357,-0.687
126098,1755607255974,39.27,-151.82,-18.3,796,766,814,329,854,33.333333333333336,-0.634,-0.36,-0.691
126128,1755607256004,39.19,-151.9,-18.3,798,775,816,366,854,33.333333333333336,-0.635,-0.358,-0.69
126157,1755607256033,39.21,-151.85,-18.31,799,771,813,397,857,34.48275862068966,-0.634,-0.359,-0.686
126187,1755607256063,39.23,-151.81,-18.3,800,772,814,397,850,33.333333333333336,-0.635,-0.361,-0.69
126217,1755607256093,39.21,-151.82,-18.28,801,771,815,356,855,33.333333333333336,-0.636,-0.361,-0.69
126246,1755607256122,39.21,-151.78,-18.24,795,767,814,358,860,34.48275862068966,-0.632,-0.36,-0.689
126276,1755607256152,39.23,-151.73,-18.23,799,776,815,391,855,33.333333333333336,-0.631,-0.36,-0.691
126306,1755607256182,39.17,-151.68,-18.21,802,779,814,409,857,33.333333333333336,-0.631,-0.363,-0.693
126335,1755607256211,39.13,-151.68,-18.17,801,777,816,372,855,34.48275862068966,-0.633,-0.363,-0.691
126365,1755607256241,39.1,-151.69,-18.17,797,768,817,350,848,33.333333333333336,-0.632,-0.359,-0.69
126394,1755607256270,39.06,-151.72,-18.18,798,778,815,378,856,34.48275862068966,-0.636,-0.36,-0.688
126483,1755607256359,39.04,-151.73,-18.19,797,766,817,343,849,33.333333333333336,-0.637,-0.359,-0.688
126512,1755607256388,39.03,-151.69,-18.2,798,772,811,349,850,34.48275862068966,-0.635,-0.36,-0.686
126542,1755607256418,39.06,-151.71,-18.21,795,770,814,396,854,33.333333333333336,-0.639,-0.36,-0.685
126572,1755607256448,39.07,-151.7,-18.2,797,775,810,398,853,33.333333333333336,-0.637,-0.36,-0.685
126601,1755607256477,39.06,-151.67,-18.2,800,771,816,355,857,34.48275862068966,-0.636,-0.362,-0.686
126631,1755607256506,39.05,-151.66,-18.2,800,774,817,348,855,33.333333333333336,-0.638,-0.362,-0.685
126660,1755607256536,39.04,-151.64,-18.19,796,769,812,397,857,34.48275862068966,-0.637,-0.361,-0.685
126690,1755607256566,39.08,-151.61,-18.18,797,773,810,418,847,33.333333333333336,-0.637,-0.361,-0.684
126749,1755607256625,39.12,-151.61,-18.16,802,776,817,357,855,34.48275862068966,-0.64,-0.362,-0.684
126779,1755607256655,39.12,-151.59,-18.14,798,771,818,364,856,33.333333333333336,-0.636,-0.362,-0.684
126809,1755607256684,39.17,-151.61,-18.14,799,774,814,392,851,33.333333333333336,-0.638,-0.362,-0.683
126868,1755607256744,39.12,-151.63,-18.17,802,775,813,365,855,33.333333333333336,-0.635,-0.362,-0.686
126898,1755607256774,39.1,-151.66,-18.22,801,772,815,354,858,33.333333333333336,-0.637,-0.363,-0.684
126927,1755607256804,39.07,-151.62,-18.22,793,772,815,377,854,34.48275862068966,-0.638,-0.363,-0.683
126957,1755607256833,39.02,-151.61,-18.24,800,774,813,396,854,33.333333333333336,-0.639,-0.363,-0.683
126987,1755607256863,39.0,-151.59,-18.22,801,774,808,381,852,33.333333333333336,-0.637,-0.364,-0.683
127017,1755607256893,38.98,-151.6,-18.22,799,774,814,366,854,33.333333333333336,-0.637,-0.363,-0.682
127046,1755607256922,38.97,-151.62,-18.24,801,776,818,359,860,34.48275862068966,-0.64,-0.364,-0.682
127076,1755607256952,38.98,-151.61,-18.19,796,770,816,386,852,33.333333333333336,-0.642,-0.365,-0.679
127105,1755607256981,39.04,-151.54,-18.15,795,766,815,383,855,34.48275862068966,-0.64,-0.361,-0.677
127135,1755607257011,39.1,-151.53,-18.17,799,775,810,361,853,33.333333333333336,-0.639,-0.363,-0.682
127164,1755607257040,39.07,-151.56,-18.17,799,776,816,339,854,34.48275862068966,-0.642,-0.364,-0.683
127194,1755607257070,39.05,-151.56,-18.2,795,777,813,382,852,33.333333333333336,-0.637,-0.362,-0.682
127223,1755607257100,39.03,-151.54,-18.23,802,771,818,398,854,34.48275862068966,-0.639,-0.364,-0.681
127253,1755607257129,39.08,-151.56,-18.2,796,770,814,393,859,33.333333333333336,-0.642,-0.365,-0.678
127283,1755607257159,39.12,-151.49,-18.17,797,769,815,352,850,33.333333333333336,-0.639,-0.363,-0.679
127312,1755607257189,39.13,-151.47,-18.14,798,779,810,369,856,34.48275862068966,-0.641,-0.363,-0.68
127342,1755607257219,39.15,-151.49,-18.14,799,773,809,405,854,33.333333333333336,-0.638,-0.362,-0.682
127372,1755607257249,39.11,-151.5,-18.15,799,773,812,367,855,33.333333333333336,-0.638,-0.363,-0.683
127402,1755607257278,39.08,-151.53,-18.15,798,777,815,363,852,33.333333333333336,-0.639,-0.363,-0.681
127432,1755607257307,39.1,-151.5,-18.14,801,771,815,346,856,33.333333333333336,-0.642,-0.363,-0.677
127461,1755607257337,39.16,-151.43,-18.14,801,767,815,334,857,34.48275862068966,-0.641,-0.363,-0.677
127491,1755607257366,39.14,-151.43,-18.11,798,777,817,382,856,33.333333333333336,-0.637,-0.366,-0.681
127520,1755607257396,38.98,-151.42,-18.12,797,771,816,368,855,34.48275862068966,-0.627,-0.36,-0.686
127579,1755607257455,38.82,-151.55,-18.12,800,779,814,328,860,34.48275862068966,-0.644,-0.363,-0.671
127609,1755607257485,38.84,-151.48,-18.08,794,772,811,377,851,33.333333333333336,-0.64,-0.362,-0.67
127639,1755607257515,38.89,-151.52,-18.04,801,771,815,388,851,33.333333333333336,-0.638,-0.366,-0.675
127668,1755607257544,38.91,-151.5,-18.02,799,777,811,372,857,34.48275862068966,-0.638,-0.364,-0.679
127698,1755607257574,38.85,-151.53,-18.04,794,767,813,342,852,33.333333333333336,-0.641,-0.364,-0.676
127728,1755607257604,38.84,-151.49,-18.01,798,775,814,367,854,33.333333333333336,-0.642,-0.362,-0.673
127757,1755607257633,38.94,-151.51,-18.04,799,774,815,379,849,34.48275862068966,-0.642,-0.363,-0.675
127787,1755607257663,38.96,-151.53,-18.05,796,775,807,386,851,33.333333333333336,-0.645,-0.366,-0.676
127817,1755607257693,38.95,-151.44,-18.01,795,772,815,341,849,33.333333333333336,-0.643,-0.365,-0.675
127846,1755607257722,39.01,-151.45,-18.03,803,772,817,356,851,34.48275862068966,-0.642,-0.364,-0.677
127876,1755607257752,39.04,-151.47,-18.03,796,768,816,378,854,33.333333333333336,-0.646,-0.366,-0.675
127906,1755607257782,39.06,-151.42,-17.99,799,772,813,393,857,33.333333333333336,-0.643,-0.367,-0.676
127965,1755607257841,39.11,-151.49,-17.97,798,774,814,361,857,33.333333333333336,-0.642,-0.366,-0.68
127995,1755607257871,39.1,-151.53,-17.95,798,773,815,377,855,33.333333333333336,-0.646,-0.363,-0.675
128025,1755607257900,39.12,-151.46,-17.92,800,773,810,408,854,33.333333333333336,-0.645,-0.364,-0.674
128054,1755607257930,39.25,-151.48,-17.89,797,773,817,382,851,34.48275862068966,-0.647,-0.366,-0.676
128084,1755607257960,39.34,-151.52,-17.87,799,768,817,348,861,33.333333333333336,-0.645,-0.364,-0.678
128113,1755607257990,39.31,-151.43,-17.86,798,775,817,349,853,34.48275862068966,-0.637,-0.363,-0.683
128143,1755607258020,39.29,-151.51,-17.92,802,775,816,398,853,33.333333333333336,-0.637,-0.364,-0.685
128173,1755607258050,39.3,-151.64,-17.98,797,776,817,407,855,33.333333333333336,-0.638,-0.363,-0.683
128193,1755607258069,39.3,-151.7,-18.02,798,779,810,390,852,50.0,-0.639,-0.36,-0.683
128223,1755607258099,39.28,-151.73,-18.09,803,766,813,410,850,33.333333333333336,-0.641,-0.361,-0.682
128253,1755607258129,39.23,-151.77,-18.08,796,776,812,397,852,33.333333333333336,-0.646,-0.363,-0.681
128283,1755607258159,39.25,-151.77,-18.04,799,771,810,355,853,33.333333333333336,-0.642,-0.365,-0.681
128312,1755607258188,39.35,-151.78,-18.0,799,771,815,353,854,34.48275862068966,-0.644,-0.364,-0.68
128342,1755607258218,39.4,-151.6,-17.83,800,775,814,406,861,33.333333333333336,-0.648,-0.364,-0.679
128371,1755607258247,39.45,-151.55,-17.71,801,771,811,390,853,34.48275862068966,-0.646,-0.362,-0.682
128401,1755607258277,39.49,-151.51,-17.63,800,778,818,353,850,33.333333333333336,-0.646,-0.36,-0.681
128431,1755607258307,39.56,-151.47,-17.61,800,768,817,310,854,33.333333333333336,-0.642,-0.36,-0.68
128460,1755607258336,39.58,-151.43,-17.62,800,778,817,374,853,34.48275862068966,-0.641,-0.36,-0.686
128490,1755607258366,39.54,-151.46,-17.6,799,771,817,395,853,33.333333333333336,-0.647,-0.358,-0.684
128520,1755607258396,39.58,-151.47,-17.58,800,767,810,373,857,33.333333333333336,-0.642,-0.357,-0.679
128549,1755607258425,39.7,-151.45,-17.6,796,773,816,358,856,34.48275862068966,-0.642,-0.357,-0.679
128609,1755607258485,39.66,-151.48,-17.66,802,772,809,387,854,33.333333333333336,-0.639,-0.36,-0.687
128639,1755607258515,39.58,-151.47,-17.68,799,768,813,395,856,33.333333333333336,-0.639,-0.36,-0.685
128668,1755607258544,39.56,-151.49,-17.68,798,774,808,361,855,34.48275862068966,-0.643,-0.361,-0.68
128698,1755607258574,39.63,-151.43,-17.64,799,770,813,346,851,33.333333333333336,-0.645,-0.361,-0.678
128757,1755607258633,39.77,-151.37,-17.6,799,775,811,354,853,33.333333333333336,-0.64,-0.358,-0.684
128786,1755607258662,39.71,-151.35,-17.65,797,774,813,366,849,34.48275862068966,-0.637,-0.359,-0.688
128816,1755607258692,39.62,-151.42,-17.7,799,774,813,349,854,33.333333333333336,-0.639,-0.362,-0.688
128846,1755607258722,39.53,-151.42,-17.71,799,776,813,351,856,33.333333333333336,-0.639,-0.362,-0.684
128905,1755607258781,39.56,-151.36,-17.69,794,768,817,397,856,33.333333333333336,-0.644,-0.365,-0.678
128934,1755607258810,39.57,-151.27,-17.66,800,772,811,349,855,34.48275862068966,-0.641,-0.362,-0.68
128964,1755607258840,39.59,-151.29,-17.66,799,769,815,358,855,33.333333333333336,-0.643,-0.364,-0.68
128994,1755607258870,39.62,-151.28,-17.65,800,773,814,404,853,33.333333333333336,-0.643,-0.365,-0.68
129023,1755607258899,39.65,-151.27,-17.61,800,774,814,420,855,34.48275862068966,-0.645,-0.362,-0.678
129053,1755607258929,39.71,-151.22,-17.58,797,768,816,383,854,33.333333333333336,-0.642,-0.36,-0.677
129082,1755607258959,39.78,-151.17,-17.57,799,776,814,360,857,34.48275862068966,-0.642,-0.364,-0.679
129112,1755607258988,39.79,-151.2,-17.55,802,773,814,363,856,33.333333333333336,-0.642,-0.365,-0.682
129142,1755607259019,39.82,-151.2,-17.53,799,773,811,403,853,33.333333333333336,-0.642,-0.365,-0.679
129162,1755607259038,39.86,-151.18,-17.51,799,774,810,363,851,50.0,-0.643,-0.362,-0.677
129192,1755607259068,39.93,-151.1,-17.5,795,779,815,387,856,33.333333333333336,-0.639,-0.362,-0.679
129222,1755607259098,39.95,-151.12,-17.52,801,772,812,389,851,33.333333333333336,-0.637,-0.364,-0.686
129251,1755607259128,39.88,-151.18,-17.54,798,769,812,359,854,34.48275862068966,-0.637,-0.365,-0.685
129281,1755607259157,39.84,-151.19,-17.56,799,776,812,359,855,33.333333333333336,-0.64,-0.364,-0.682
129311,1755607259187,39.83,-151.17,-17.55,800,768,811,391,860,33.333333333333336,-0.64,-0.365,-0.678
129341,1755607259217,39.9,-151.14,-17.55,794,775,817,366,852,33.333333333333336,-0.64,-0.366,-0.68
129371,1755607259247,39.92,-151.17,-17.55,796,773,809,363,850,33.333333333333336,-0.64,-0.366,-0.682
129400,1755607259276,39.9,-151.14,-17.53,798,772,816,337,855,34.48275862068966,-0.639,-0.366,-0.681
129430,1755607259306,39.88,-151.11,-17.51,798,769,816,334,856,33.333333333333336,-0.637,-0.366,-0.681
129459,1755607259335,39.9,-151.13,-17.49,799,778,814,377,853,34.48275862068966,-0.64,-0.365,-0.681
129489,1755607259365,39.92,-151.12,-17.49,794,768,813,378,854,33.333333333333336,-0.638,-0.364,-0.681
129519,1755607259396,39.93,-151.12,-17.47,796,773,814,358,853,33.333333333333336,-0.641,-0.367,-0.681
129539,1755607259415,39.92,-151.09,-17.46,799,776,816,390,851,50.0,-0.637,-0.368,-0.682
129569,1755607259445,39.94,-151.13,-17.47,794,775,810,372,851,33.333333333333336,-0.639,-0.367,-0.683
129599,1755607259475,39.92,-151.12,-17.45,802,778,817,360,852,33.333333333333336,-0.638,-0.366,-0.682
129619,1755607259495,39.93,-151.11,-17.46,799,777,811,389,855,50.0,-0.637,-0.365,-0.68
129649,1755607259525,39.93,-151.09,-17.45,794,776,815,360,859,33.333333333333336,-0.637,-0.366,-0.682
129678,1755607259555,39.93,-151.13,-17.47,798,773,816,375,853,34.48275862068966,-0.637,-0.365,-0.683
129708,1755607259585,39.91,-151.13,-17.47,798,778,814,404,850,33.333333333333336,-0.635,-0.367,-0.682
129738,1755607259614,39.92,-151.17,-17.47,800,778,812,391,853,33.333333333333336,-0.638,-0.368,-0.682
129768,1755607259644,39.9,-151.17,-17.46,798,773,814,373,856,33.333333333333336,-0.637,-0.367,-0.681
129798,1755607259674,39.9,-151.19,-17.48,799,772,817,355,855,33.333333333333336,-0.638,-0.366,-0.682
129827,1755607259703,39.84,-151.21,-17.49,800,776,812,387,856,34.48275862068966,-0.639,-0.367,-0.683
129857,1755607259733,39.79,-151.22,-17.47,800,776,807,410,856,33.333333333333336,-0.64,-0.367,-0.681
129877,1755607259753,39.78,-151.22,-17.46,798,773,814,366,854,50.0,-0.639,-0.367,-0.678
129906,1755607259782,39.81,-151.22,-17.45,798,775,813,395,853,34.48275862068966,-0.64,-0.367,-0.678
129936,1755607259812,39.83,-151.21,-17.43,797,773,808,373,854,33.333333333333336,-0.641,-0.366,-0.679
129965,1755607259841,39.81,-151.18,-17.42,796,775,814,307,855,34.48275862068966,-0.64,-0.364,-0.679
129995,1755607259871,39.78,-151.17,-17.4,802,774,816,349,855,33.333333333333336,-0.64,-0.366,-0.68
130025,1755607259900,39.78,-151.16,-17.38,801,772,812,396,851,33.333333333333336,-0.64,-0.366,-0.678
130054,1755607259930,39.84,-151.16,-17.38,798,773,816,387,859,34.48275862068966,-0.641,-0.364,-0.678
130084,1755607259960,39.85,-151.1,-17.36,800,773,817,362,855,33.333333333333336,-0.641,-0.364,-0.679
130114,1755607259990,39.88,-151.12,-17.36,801,775,811,371,851,33.333333333333336,-0.64,-0.366,-0.68
130143,1755607260020,39.86,-151.12,-17.34,798,773,813,403,855,34.48275862068966,-0.64,-0.365,-0.68
130173,1755607260049,39.86,-151.11,-17.34,797,772,813,398,856,33.333333333333336,-0.64,-0.364,-0.678
130233,1755607260109,39.81,-151.05,-17.3,799,778,816,345,856,33.333333333333336,-0.637,-0.363,-0.678
130262,1755607260138,39.81,-151.12,-17.31,801,777,813,371,854,34.48275862068966,-0.636,-0.365,-0.678
130292,1755607260168,39.75,-151.13,-17.31,797,779,817,405,851,33.333333333333336,-0.636,-0.365,-0.68
130322,1755607260198,39.71,-151.15,-17.3,797,775,818,382,852,33.333333333333336,-0.638,-0.364,-0.678
130351,1755607260227,39.72,-151.17,-17.28,800,773,815,338,853,34.48275862068966,-0.638,-0.366,-0.676
130381,1755607260257,39.74,-151.15,-17.26,795,770,812,339,852,33.333333333333336,-0.641,-0.366,-0.677
130410,1755607260286,39.76,-151.15,-17.27,800,774,813,373,853,34.48275862068966,-0.637,-0.365,-0.679
130470,1755607260346,39.73,-151.19,-17.26,798,777,812,359,855,33.333333333333336,-0.639,-0.367,-0.68
130500,1755607260375,39.72,-151.18,-17.25,798,775,817,327,859,33.333333333333336,-0.639,-0.366,-0.678
130529,1755607260405,39.75,-151.18,-17.24,801,777,812,352,852,34.48275862068966,-0.64,-0.365,-0.676
130579,1755607260455,39.79,-151.16,-17.22,796,776,815,359,853,50.0,-0.64,-0.365,-0.679
130608,1755607260484,39.77,-151.14,-17.22,799,778,811,391,851,34.48275862068966,-0.638,-0.367,-0.681
130638,1755607260514,39.75,-151.14,-17.21,801,773,817,391,857,33.333333333333336,-0.639,-0.366,-0.68
130668,1755607260544,39.78,-151.12,-17.21,802,778,811,355,850,33.333333333333336,-0.639,-0.365,-0.678
130698,1755607260574,39.82,-151.12,-17.23,799,771,811,345,851,33.333333333333336,-0.639,-0.365,-0.682
130727,1755607260603,39.76,-151.12,-17.22,801,779,816,372,852,34.48275862068966,-0.638,-0.366,-0.682
130757,1755607260633,39.76,-151.15,-17.22,796,773,810,404,852,33.333333333333336,-0.639,-0.368,-0.68
130786,1755607260663,39.75,-151.14,-17.19,798,775,815,364,848,34.48275862068966,-0.64,-0.366,-0.679
130816,1755607260692,39.75,-151.12,-17.21,797,776,809,358,849,33.333333333333336,-0.638,-0.365,-0.68
130846,1755607260722,39.73,-151.14,-17.21,795,774,815,371,857,33.333333333333336,-0.638,-0.367,-0.683
130876,1755607260752,39.72,-151.19,-17.22,799,775,813,392,862,33.333333333333336,-0.639,-0.367,-0.681
130906,1755607260782,39.71,-151.19,-17.22,800,767,813,404,851,33.333333333333336,-0.639,-0.367,-0.68
130935,1755607260811,39.72,-151.21,-17.21,798,778,818,361,854,34.48275862068966,-0.64,-0.365,-0.679
130965,1755607260841,39.75,-151.19,-17.21,798,776,816,341,851,33.333333333333336,-0.641,-0.364,-0.679
130994,1755607260871,39.74,-151.18,-17.21,802,779,811,365,850,34.48275862068966,-0.639,-0.367,-0.682
131054,1755607260930,39.68,-151.19,-17.21,795,778,811,379,853,33.333333333333336,-0.641,-0.364,-0.678
131083,1755607260959,39.71,-151.18,-17.22,799,777,813,358,856,34.48275862068966,-0.64,-0.365,-0.678
131113,1755607260989,39.73,-151.18,-17.21,797,768,813,366,851,33.333333333333336,-0.641,-0.367,-0.681
131143,1755607261019,39.72,-151.19,-17.19,794,773,815,388,856,33.333333333333336,-0.64,-0.366,-0.679
131172,1755607261048,39.74,-151.15,-17.17,797,769,816,404,854,34.48275862068966,-0.642,-0.365,-0.678
131202,1755607261078,39.75,-151.13,-17.16,800,767,815,368,856,33.333333333333336,-0.639,-0.365,-0.679
131231,1755607261107,39.77,-151.17,-17.2,793,776,814,345,852,34.48275862068966,-0.64,-0.364,-0.679
131261,1755607261137,39.78,-151.13,-17.17,793,775,814,375,852,33.333333333333336,-0.64,-0.365,-0.678
131320,1755607261196,39.76,-151.1,-17.16,800,774,812,361,860,33.333333333333336,-0.639,-0.367,-0.68
131350,1755607261226,39.74,-151.14,-17.15,800,778,816,356,851,33.333333333333336,-0.638,-0.365,-0.678
131380,1755607261256,39.75,-151.14,-17.17,798,773,812,365,856,33.333333333333336,-0.639,-0.365,-0.679
131410,1755607261286,39.74,-151.14,-17.16,801,775,816,396,853,33.333333333333336,-0.64,-0.367,-0.679
131469,1755607261345,39.77,-151.16,-17.14,797,780,807,348,855,33.333333333333336,-0.641,-0.365,-0.68
131499,1755607261375,39.75,-151.14,-17.12,794,769,810,309,853,33.333333333333336,-0.64,-0.365,-0.678
131528,1755607261404,39.73,-151.12,-17.13,802,777,816,353,851,34.48275862068966,-0.639,-0.365,-0.68
131558,1755607261434,39.7,-151.13,-17.13,795,776,816,398,853,33.333333333333336,-0.641,-0.365,-0.679
131588,1755607261464,39.73,-151.12,-17.11,799,773,815,383,848,33.333333333333336,-0.641,-0.365,-0.677
131617,1755607261493,39.76,-151.07,-17.1,795,774,812,347,856,34.48275862068966,-0.639,-0.366,-0.679
131647,1755607261523,39.73,-151.09,-17.1,799,769,817,361,853,33.333333333333336,-0.639,-0.366,-0.682
131676,1755607261553,39.66,-151.12,-17.11,800,774,818,360,851,34.48275862068966,-0.64,-0.365,-0.68
131706,1755607261582,39.62,-151.12,-17.1,797,772,814,387,851,33.333333333333336,-0.64,-0.367,-0.677
131736,1755607261612,39.7,-151.12,-17.1,798,775,818,367,853,33.333333333333336,-0.642,-0.367,-0.676
131766,1755607261642,39.76,-151.12,-17.1,795,774,814,366,849,33.333333333333336,-0.641,-0.366,-0.678
131795,1755607261671,39.75,-151.12,-17.1,797,777,812,386,849,34.48275862068966,-0.639,-0.366,-0.68
131825,1755607261701,39.68,-151.14,-17.13,799,767,813,408,857,33.333333333333336,-0.639,-0.365,-0.681
131854,1755607261730,39.64,-151.17,-17.15,801,768,816,387,848,34.48275862068966,-0.642,-0.365,-0.679
131884,1755607261760,39.67,-151.18,-17.15,797,775,815,360,853,33.333333333333336,-0.643,-0.366,-0.675
131914,1755607261790,39.76,-151.13,-17.12,798,771,814,372,854,33.333333333333336,-0.644,-0.368,-0.674
131943,1755607261820,39.8,-151.08,-17.08,798,773,808,401,851,34.48275862068966,-0.641,-0.367,-0.679
131973,1755607261849,39.8,-151.12,-17.08,796,771,823,393,853,33.333333333333336,-0.64,-0.366,-0.681
132032,1755607261908,39.75,-151.12,-17.07,800,776,816,358,849,34.48275862068966,-0.642,-0.366,-0.679
132062,1755607261938,39.75,-151.11,-17.07,799,775,815,371,854,33.333333333333336,-0.642,-0.366,-0.678
132092,1755607261968,39.76,-151.11,-17.06,801,778,812,389,859,33.333333333333336,-0.641,-0.366,-0.678
132121,1755607261997,39.79,-151.13,-17.06,795,778,815,399,853,34.48275862068966,-0.642,-0.367,-0.678
132151,1755607262027,39.82,-151.11,-17.05,798,774,813,359,856,33.333333333333336,-0.643,-0.366,-0.677
132180,1755607262057,39.82,-151.08,-17.03,801,773,813,366,851,34.48275862068966,-0.64,-0.365,-0.679
132201,1755607262077,39.83,-151.09,-17.04,799,773,814,382,859,47.61904761904762,-0.639,-0.366,-0.68
132230,1755607262106,39.82,-151.1,-17.04,793,771,818,386,852,34.48275862068966,-0.64,-0.366,-0.68
132260,1755607262136,39.78,-151.09,-17.03,801,774,816,404,854,33.333333333333336,-0.639,-0.366,-0.68
132290,1755607262166,39.74,-151.07,-17.02,797,775,816,402,855,33.333333333333336,-0.639,-0.367,-0.68
132319,1755607262196,39.76,-151.11,-17.02,796,772,810,365,857,34.48275862068966,-0.64,-0.367,-0.679
132349,1755607262225,39.76,-151.09,-17.0,799,775,813,337,855,33.333333333333336,-0.641,-0.367,-0.678
132379,1755607262255,39.79,-151.08,-16.98,801,770,810,371,854,33.333333333333336,-0.64,-0.368,-0.679
132409,1755607262285,39.78,-151.1,-16.96,796,770,814,406,851,33.333333333333336,-0.642,-0.367,-0.679
132468,1755607262344,39.78,-151.09,-16.96,800,773,809,357,852,33.333333333333336,-0.64,-0.365,-0.678
132497,1755607262373,39.78,-151.11,-16.98,801,776,816,366,852,34.48275862068966,-0.641,-0.366,-0.679
132527,1755607262403,39.75,-151.13,-16.98,799,773,813,392,852,33.333333333333336,-0.642,-0.367,-0.678
132556,1755607262433,39.74,-151.12,-16.98,800,767,807,404,849,34.48275862068966,-0.641,-0.365,-0.678
132586,1755607262462,39.74,-151.11,-16.99,795,771,809,368,856,33.333333333333336,-0.641,-0.365,-0.678
132616,1755607262492,39.73,-151.13,-17.01,801,777,812,338,855,33.333333333333336,-0.642,-0.365,-0.679
132645,1755607262521,39.71,-151.18,-17.03,798,776,814,371,854,34.48275862068966,-0.643,-0.365,-0.678
132675,1755607262552,39.7,-151.15,-17.03,799,774,813,397,854,33.333333333333336,-0.641,-0.365,-0.677
132695,1755607262572,39.71,-151.16,-17.04,798,772,815,367,854,50.0,-0.642,-0.364,-0.678
132715,1755607262592,39.69,-151.15,-17.04,799,774,813,338,852,50.0,-0.641,-0.363,-0.679
132736,1755607262612,39.66,-151.16,-17.06,795,776,814,382,849,47.61904761904762,-0.637,-0.363,-0.682
132756,1755607262632,39.63,-151.2,-17.08,798,775,816,411,854,50.0,-0.642,-0.364,-0.682
132785,1755607262661,39.54,-151.21,-17.07,797,776,816,363,853,34.48275862068966,-0.641,-0.368,-0.678
132815,1755607262691,39.59,-151.27,-17.08,797,770,814,358,854,33.333333333333336,-0.644,-0.366,-0.673
132874,1755607262750,39.92,-151.21,-16.98,798,777,812,397,857,34.48275862068966,-0.644,-0.369,-0.674
132904,1755607262780,40.13,-151.26,-16.95,798,773,814,393,850,33.333333333333336,-0.638,-0.372,-0.675
132933,1755607262809,40.53,-151.33,-16.96,800,771,809,339,853,34.48275862068966,-0.64,-0.366,-0.675
132963,1755607262839,40.86,-151.38,-16.97,798,774,817,366,855,33.333333333333336,-0.644,-0.358,-0.677
132993,1755607262869,40.81,-151.27,-16.97,799,771,815,401,855,33.333333333333336,-0.631,-0.357,-0.691
133022,1755607262898,40.49,-151.37,-17.06,794,773,809,403,849,34.48275862068966,-0.624,-0.361,-0.704
133052,1755607262928,40.21,-151.61,-17.18,800,776,816,364,856,33.333333333333336,-0.626,-0.364,-0.701
133082,1755607262958,39.97,-151.63,-17.18,798,775,815,361,852,33.333333333333336,-0.638,-0.364,-0.688
133111,1755607262987,39.89,-151.49,-17.14,799,773,815,409,853,34.48275862068966,-0.639,-0.365,-0.678
133141,1755607263017,39.98,-151.4,-17.06,800,772,813,403,854,33.333333333333336,-0.64,-0.366,-0.679
133170,1755607263046,40.14,-151.47,-17.04,795,770,816,371,854,34.48275862068966,-0.64,-0.363,-0.679
133229,1755607263106,40.33,-151.39,-16.92,798,774,815,366,855,34.48275862068966,-0.636,-0.365,-0.685
133259,1755607263136,40.44,-151.48,-16.94,797,773,812,392,860,33.333333333333336,-0.63,-0.363,-0.688
133279,1755607263156,40.57,-151.6,-17.02,797,766,810,361,856,50.0,-0.624,-0.361,-0.688
133309,1755607263185,40.98,-151.76,-17.18,802,778,815,379,853,33.333333333333336,-0.624,-0.36,-0.685
133339,1755607263215,41.37,-151.84,-17.28,795,774,809,367,854,33.333333333333336,-0.624,-0.361,-0.69
133389,1755607263265,41.27,-151.59,-17.16,796,775,816,382,854,47.61904761904762,-0.628,-0.362,-0.706
133418,1755607263295,41.05,-151.61,-17.19,794,773,811,332,855,34.48275862068966,-0.617,-0.359,-0.709
133448,1755607263324,40.92,-151.7,-17.27,798,769,817,332,851,33.333333333333336,-0.618,-0.36,-0.705
133478,1755607263354,40.76,-151.68,-17.28,798,770,812,379,859,33.333333333333336,-0.623,-0.363,-0.704
133508,1755607263384,40.6,-151.62,-17.23,797,777,813,385,853,33.333333333333336,-0.62,-0.366,-0.703
133567,1755607263443,40.45,-151.63,-17.14,799,779,816,358,854,33.333333333333336,-0.626,-0.363,-0.697
133596,1755607263472,40.52,-151.6,-17.15,798,767,815,370,852,34.48275862068966,-0.619,-0.36,-0.698
133626,1755607263502,40.51,-151.62,-17.17,800,775,813,403,852,33.333333333333336,-0.619,-0.363,-0.702
133656,1755607263532,40.52,-151.76,-17.22,792,771,810,407,854,33.333333333333336,-0.621,-0.366,-0.702
133685,1755607263561,40.53,-151.79,-17.21,800,774,813,323,852,34.48275862068966,-0.624,-0.362,-0.696
133715,1755607263591,40.56,-151.71,-17.2,796,778,813,340,853,33.333333333333336,-0.622,-0.36,-0.696
133744,1755607263621,40.54,-151.71,-17.19,801,776,816,380,857,34.48275862068966,-0.622,-0.362,-0.703
133774,1755607263650,40.48,-151.79,-17.22,797,771,815,405,851,33.333333333333336,-0.618,-0.361,-0.703
133804,1755607263680,40.39,-151.78,-17.24,800,772,813,363,851,33.333333333333336,-0.62,-0.36,-0.701
133833,1755607263710,40.33,-151.78,-17.24,801,779,817,352,854,34.48275862068966,-0.619,-0.362,-0.701
133863,1755607263740,40.3,-151.79,-17.24,800,777,815,377,853,33.333333333333336,-0.619,-0.365,-0.701
133883,1755607263760,40.26,-151.8,-17.23,799,779,815,332,852,50.0,-0.621,-0.367,-0.702
133904,1755607263780,40.21,-151.81,-17.19,794,777,811,396,856,47.61904761904762,-0.621,-0.367,-0.7
133934,1755607263810,40.22,-151.84,-17.2,794,769,815,351,852,33.333333333333336,-0.62,-0.363,-0.7
133963,1755607263840,40.24,-151.81,-17.17,795,776,815,352,860,34.48275862068966,-0.618,-0.361,-0.699
133983,1755607263859,40.27,-151.82,-17.18,800,775,814,361,855,50.0,-0.617,-0.36,-0.699
134013,1755607263889,40.19,-151.76,-17.15,800,778,808,329,852,33.333333333333336,-0.619,-0.361,-0.703
134043,1755607263919,40.09,-151.78,-17.15,797,774,812,379,855,33.333333333333336,-0.614,-0.361,-0.705
134072,1755607263949,40.01,-151.77,-17.14,795,775,813,340,851,34.48275862068966,-0.615,-0.363,-0.702
134102,1755607263978,39.99,-151.79,-17.11,795,778,813,332,854,33.333333333333336,-0.62,-0.365,-0.699
134131,1755607264008,39.99,-151.75,-17.07,804,778,816,342,856,34.48275862068966,-0.62,-0.363,-0.698
