timestamp_ms,recv_timestamp_ms,pitch,roll,yaw,flex1,flex2,flex3,flex4,flex5,sampling_hz,accel_x,accel_y,accel_z
27845,1755603838868,67.78,-94.06,-25.82,774,782,768,438,886,34.48275862068966,-0.929,-0.378,-0.025
27875,1755603838870,67.79,-94.09,-25.85,773,778,776,333,892,33.333333333333336,-0.928,-0.378,-0.025
27905,1755603838872,67.79,-94.2,-25.94,767,788,766,312,899,33.333333333333336,-0.927,-0.379,-0.025
27925,1755603838874,67.76,-94.23,-25.99,766,786,773,368,896,50.0,-0.927,-0.38,-0.025
27946,1755603838876,67.75,-94.25,-26.02,767,784,774,468,892,47.61904761904762,-0.928,-0.38,-0.024
27976,1755603838878,67.72,-94.34,-26.05,771,782,770,348,889,33.333333333333336,-0.929,-0.382,-0.024
28036,1755603838882,67.75,-94.45,-26.08,763,782,766,361,893,33.333333333333336,-0.927,-0.383,-0.025
28066,1755603838884,67.77,-94.4,-26.09,771,782,774,463,896,33.333333333333336,-0.927,-0.383,-0.026
28086,1755603838886,67.78,-94.39,-26.1,772,775,773,347,894,50.0,-0.928,-0.384,-0.027
28106,1755603838888,67.8,-94.37,-26.1,770,787,772,332,886,50.0,-0.928,-0.384,-0.028
28136,1755603838890,67.76,-94.32,-26.08,766,785,770,366,889,33.333333333333336,-0.925,-0.383,-0.028
28166,1755603838892,67.71,-94.32,-26.12,767,786,768,447,899,33.333333333333336,-0.924,-0.383,-0.028
28186,1755603838894,67.68,-94.32,-26.14,766,786,772,333,898,50.0,-0.925,-0.383,-0.027
28216,1755603838896,67.63,-94.33,-26.18,770,787,772,440,895,33.333333333333336,-0.926,-0.383,-0.026
28266,1755603838900,67.65,-94.32,-26.24,768,786,768,421,891,33.333333333333336,-0.928,-0.384,-0.024
28286,1755603838902,67.65,-94.29,-26.25,770,781,773,325,903,50.0,-0.928,-0.385,-0.025
28306,1755603838904,67.67,-94.26,-26.26,768,782,770,339,896,50.0,-0.928,-0.386,-0.025
28336,1755603838906,67.67,-94.21,-26.26,763,778,771,355,892,33.333333333333336,-0.926,-0.386,-0.025
28396,1755603838910,67.65,-94.14,-26.3,771,781,773,428,892,33.333333333333336,-0.928,-0.386,-0.023
28425,1755603838926,67.65,-94.05,-26.31,769,781,774,336,888,34.48275862068966,-0.927,-0.386,-0.023
28455,1755603838956,67.63,-93.93,-26.32,772,782,773,327,894,33.333333333333336,-0.925,-0.386,-0.022
28476,1755603838976,67.61,-93.83,-26.33,768,787,773,384,902,47.61904761904762,-0.923,-0.385,-0.021
28505,1755603839006,67.62,-93.76,-26.34,771,786,773,331,894,34.48275862068966,-0.924,-0.387,-0.021
28535,1755603839036,67.62,-93.59,-26.31,764,783,763,339,887,33.333333333333336,-0.928,-0.387,-0.02
28556,1755603839056,67.62,-93.51,-26.3,765,783,770,324,897,47.61904761904762,-0.928,-0.385,-0.02
28586,1755603839086,67.7,-93.46,-26.31,765,783,767,369,898,33.333333333333336,-0.927,-0.384,-0.02
28615,1755603839116,67.27,-93.42,-26.33,764,781,769,439,887,34.48275862068966,-0.927,-0.385,-0.021
28645,1755603839145,67.27,-93.37,-26.34,765,779,771,413,891,33.333333333333336,-0.927,-0.386,-0.023
28675,1755603839175,67.31,-93.34,-26.33,769,778,774,332,878,33.333333333333336,-0.928,-0.387,-0.022
28705,1755603839205,67.3,-93.25,-26.31,765,785,777,321,891,33.333333333333336,-0.926,-0.385,-0.02
28735,1755603839235,67.34,-93.2,-26.3,770,781,767,396,895,33.333333333333336,-0.925,-0.385,-0.02
28755,1755603839255,67.37,-93.18,-26.3,766,789,767,345,890,50.0,-0.926,-0.385,-0.02
28785,1755603839285,67.41,-93.19,-26.3,764,775,766,401,892,33.333333333333336,-0.928,-0.386,-0.02
28815,1755603839315,67.43,-93.2,-26.31,760,779,772,433,895,33.333333333333336,-0.927,-0.385,-0.02
28835,1755603839335,67.41,-93.19,-26.3,770,785,771,375,893,50.0,-0.925,-0.385,-0.019
28865,1755603839365,67.46,-93.18,-26.31,762,781,769,413,898,33.333333333333336,-0.932,-0.385,-0.018
28895,1755603839395,67.4,-93.21,-26.3,771,783,769,401,892,33.333333333333336,-0.93,-0.384,-0.02
28925,1755603839425,67.44,-93.26,-26.33,764,788,773,329,891,33.333333333333336,-0.93,-0.384,-0.02
28954,1755603839455,67.41,-93.15,-26.33,767,785,769,336,896,34.48275862068966,-0.928,-0.384,-0.017
28984,1755603839485,67.39,-93.09,-26.36,768,788,769,391,890,33.333333333333336,-0.928,-0.385,-0.017
29014,1755603839515,67.39,-93.07,-26.37,766,786,768,428,888,33.333333333333336,-0.928,-0.386,-0.019
29044,1755603839545,67.36,-92.98,-26.43,760,781,767,410,894,33.333333333333336,-0.928,-0.386,-0.017
29064,1755603839565,67.31,-92.86,-26.49,771,785,771,388,893,50.0,-0.927,-0.386,-0.013
29094,1755603839594,67.2,-92.6,-26.66,766,777,771,393,886,33.333333333333336,-0.922,-0.386,-0.011
29124,1755603839625,67.16,-92.5,-26.8,765,785,768,342,896,33.333333333333336,-0.922,-0.387,-0.012
29144,1755603839645,67.18,-92.49,-26.84,765,777,776,439,896,50.0,-0.928,-0.39,-0.014
29174,1755603839674,67.2,-92.5,-26.8,765,786,774,363,891,33.333333333333336,-0.929,-0.391,-0.014
29204,1755603839704,67.27,-92.48,-26.77,770,783,771,340,896,33.333333333333336,-0.925,-0.39,-0.013
29224,1755603839724,67.3,-92.46,-26.75,767,785,779,378,896,50.0,-0.92,-0.388,-0.013
29254,1755603839754,67.3,-92.38,-26.75,766,784,771,350,891,33.333333333333336,-0.92,-0.388,-0.012
29284,1755603839784,67.29,-92.34,-26.77,770,782,772,417,902,33.333333333333336,-0.923,-0.388,-0.013
29314,1755603839814,67.3,-92.36,-26.78,763,789,769,410,883,33.333333333333336,-0.924,-0.388,-0.012
29343,1755603839844,67.3,-92.34,-26.8,761,788,766,375,880,34.48275862068966,-0.923,-0.387,-0.01
29364,1755603839864,67.28,-92.29,-26.82,768,777,769,399,887,47.61904761904762,-0.922,-0.387,-0.008
29394,1755603839894,67.27,-92.27,-26.88,768,782,770,338,894,33.333333333333336,-0.922,-0.388,-0.009
29424,1755603839924,67.29,-92.27,-26.9,770,784,773,299,892,33.333333333333336,-0.93,-0.392,-0.011
29454,1755603839954,67.31,-92.26,-26.87,769,777,778,342,889,33.333333333333336,-0.929,-0.395,-0.011
29474,1755603839974,67.29,-92.22,-26.84,760,784,772,354,890,50.0,-0.924,-0.395,-0.009
29504,1755603840004,67.32,-92.2,-26.81,767,778,769,360,896,33.333333333333336,-0.922,-0.394,-0.01
29534,1755603840034,67.32,-92.19,-26.81,767,789,771,443,891,33.333333333333336,-0.923,-0.393,-0.012
29554,1755603840054,67.32,-92.19,-26.81,769,778,771,334,891,50.0,-0.924,-0.392,-0.012
29584,1755603840084,67.29,-92.13,-26.8,765,778,764,422,895,33.333333333333336,-0.925,-0.388,-0.01
29614,1755603840114,67.27,-92.1,-26.85,761,781,772,422,892,33.333333333333336,-0.925,-0.385,-0.009
29644,1755603840144,67.26,-92.01,-26.88,765,783,774,382,901,33.333333333333336,-0.925,-0.386,-0.006
29664,1755603840164,67.24,-91.94,-26.91,764,780,767,410,894,50.0,-0.924,-0.39,-0.005
29694,1755603840194,67.23,-91.85,-26.92,764,781,776,376,885,33.333333333333336,-0.924,-0.394,-0.006
29744,1755603840244,67.27,-91.81,-26.89,767,787,764,379,887,33.333333333333336,-0.921,-0.396,-0.007
29764,1755603840264,67.3,-91.83,-26.89,766,782,770,405,888,50.0,-0.92,-0.395,-0.007
29794,1755603840294,67.32,-91.84,-26.9,762,776,773,370,894,33.333333333333336,-0.92,-0.391,-0.007
29854,1755603840354,67.32,-91.86,-26.97,769,782,775,317,896,33.333333333333336,-0.924,-0.388,-0.011
29884,1755603840385,67.33,-91.98,-27.0,764,787,770,419,893,33.333333333333336,-0.925,-0.392,-0.013
29905,1755603840406,67.31,-92.02,-27.02,769,787,774,315,892,47.61904761904762,-0.925,-0.396,-0.012
29925,1755603840425,67.29,-92.03,-27.02,765,779,774,369,884,50.0,-0.925,-0.398,-0.011
29955,1755603840455,67.25,-92.0,-27.01,772,782,770,340,889,33.333333333333336,-0.925,-0.397,-0.01
29985,1755603840485,67.26,-91.95,-26.96,767,784,765,401,885,33.333333333333336,-0.926,-0.398,-0.007
30005,1755603840505,67.3,-91.88,-26.91,770,781,768,345,892,50.0,-0.926,-0.397,-0.006
30035,1755603840535,67.31,-91.85,-26.88,764,781,763,404,887,33.333333333333336,-0.921,-0.391,-0.007
30055,1755603840555,67.31,-91.84,-26.89,763,785,777,303,889,50.0,-0.919,-0.386,-0.007
30085,1755603840585,67.26,-91.86,-26.96,772,785,775,373,894,33.333333333333336,-0.92,-0.387,-0.009
30135,1755603840636,67.21,-91.87,-26.99,763,789,768,388,888,33.333333333333336,-0.926,-0.392,-0.01
30155,1755603840656,67.19,-91.87,-26.98,763,778,773,323,893,50.0,-0.925,-0.394,-0.01
30175,1755603840676,67.21,-91.9,-26.97,766,788,774,396,888,50.0,-0.923,-0.394,-0.008
30205,1755603840706,67.24,-91.92,-26.97,766,784,772,365,890,33.333333333333336,-0.922,-0.393,-0.007
30235,1755603840736,67.26,-91.91,-26.98,768,783,773,396,892,33.333333333333336,-0.923,-0.391,-0.008
30255,1755603840756,67.28,-91.93,-26.99,766,778,778,365,892,50.0,-0.923,-0.391,-0.011
30275,1755603840776,67.27,-91.94,-27.01,764,785,771,385,903,50.0,-0.922,-0.392,-0.012
30305,1755603840806,67.3,-91.95,-27.02,758,792,776,358,896,33.333333333333336,-0.923,-0.393,-0.013
30325,1755603840826,67.3,-91.97,-27.03,758,786,768,402,892,50.0,-0.923,-0.392,-0.013
30385,1755603840886,67.3,-92.04,-27.1,768,782,771,395,894,33.333333333333336,-0.922,-0.393,-0.014
30415,1755603840916,67.31,-92.11,-27.13,764,784,773,447,894,33.333333333333336,-0.923,-0.394,-0.015
30435,1755603840936,67.32,-92.16,-27.16,767,783,773,340,891,50.0,-0.923,-0.393,-0.016
30455,1755603840956,67.32,-92.23,-27.19,765,784,770,333,887,50.0,-0.922,-0.392,-0.017
30485,1755603840986,67.31,-92.31,-27.25,768,782,767,381,889,33.333333333333336,-0.922,-0.394,-0.017
30515,1755603841016,67.27,-92.37,-27.29,770,781,771,430,891,33.333333333333336,-0.924,-0.395,-0.016
30545,1755603841046,67.2,-92.51,-27.31,760,776,771,415,889,33.333333333333336,-0.922,-0.396,-0.017
30565,1755603841066,67.19,-92.65,-27.35,764,785,779,386,883,50.0,-0.92,-0.396,-0.015
30595,1755603841096,67.21,-92.73,-27.4,774,784,773,392,888,33.333333333333336,-0.92,-0.392,-0.01
30615,1755603841116,67.19,-92.68,-27.45,763,778,772,371,892,50.0,-0.922,-0.388,-0.005
30705,1755603841206,67.28,-92.44,-27.51,767,774,773,303,894,33.333333333333336,-0.923,-0.402,-0.012
30735,1755603841236,67.35,-92.43,-27.5,756,789,772,368,894,33.333333333333336,-0.92,-0.4,-0.013
30755,1755603841256,67.35,-92.4,-27.49,769,783,772,320,894,50.0,-0.919,-0.399,-0.013
30785,1755603841286,67.35,-92.34,-27.5,765,785,769,389,893,33.333333333333336,-0.917,-0.399,-0.016
30815,1755603841316,67.41,-92.33,-27.5,767,775,770,426,884,33.333333333333336,-0.921,-0.401,-0.017
30845,1755603841346,67.4,-92.3,-27.48,765,783,769,416,902,33.333333333333336,-0.922,-0.401,-0.016
30865,1755603841366,67.39,-92.24,-27.45,766,781,774,402,895,50.0,-0.919,-0.4,-0.014
30895,1755603841395,67.41,-92.17,-27.45,768,790,773,394,888,33.333333333333336,-0.917,-0.398,-0.014
30925,1755603841426,67.45,-92.16,-27.47,764,788,768,267,884,33.333333333333336,-0.919,-0.397,-0.016
30945,1755603841446,67.44,-92.17,-27.49,766,781,764,418,893,50.0,-0.921,-0.396,-0.018
30975,1755603841476,67.4,-92.12,-27.49,767,778,768,322,900,33.333333333333336,-0.924,-0.398,-0.017
31005,1755603841505,67.41,-92.07,-27.46,765,780,768,324,890,33.333333333333336,-0.921,-0.4,-0.016
31035,1755603841535,67.51,-92.1,-27.46,763,776,767,398,885,33.333333333333336,-0.918,-0.398,-0.018
31065,1755603841565,67.57,-92.27,-27.52,766,777,773,431,895,33.333333333333336,-0.915,-0.397,-0.023
31085,1755603841586,67.55,-92.37,-27.58,768,785,768,362,887,50.0,-0.915,-0.398,-0.026
31105,1755603841605,67.55,-92.44,-27.61,769,779,774,314,893,50.0,-0.918,-0.4,-0.028
31135,1755603841635,67.55,-92.43,-27.6,768,785,771,387,893,33.333333333333336,-0.92,-0.401,-0.028
31165,1755603841665,67.55,-92.48,-27.6,762,785,765,427,889,33.333333333333336,-0.921,-0.402,-0.026
31195,1755603841695,67.56,-92.56,-27.59,770,788,768,406,897,33.333333333333336,-0.92,-0.401,-0.024
31224,1755603841725,67.58,-92.59,-27.59,764,777,773,308,896,34.48275862068966,-0.921,-0.4,-0.022
31245,1755603841745,67.53,-92.54,-27.59,769,784,768,426,892,47.61904761904762,-0.922,-0.398,-0.02
31265,1755603841766,67.49,-92.48,-27.58,769,787,771,421,886,50.0,-0.922,-0.399,-0.021
31295,1755603841795,67.49,-92.43,-27.57,764,781,766,403,887,33.333333333333336,-0.922,-0.401,-0.024
31325,1755603841825,67.54,-92.43,-27.55,766,786,768,315,887,33.333333333333336,-0.921,-0.403,-0.025
31355,1755603841855,67.54,-92.39,-27.5,769,784,775,316,889,33.333333333333336,-0.919,-0.401,-0.025
31375,1755603841875,67.52,-92.39,-27.49,768,777,775,369,890,50.0,-0.919,-0.398,-0.024
31405,1755603841905,67.54,-92.39,-27.51,760,780,766,346,891,33.333333333333336,-0.92,-0.396,-0.024
31434,1755603841935,67.45,-92.41,-27.53,765,782,767,431,889,34.48275862068966,-0.921,-0.396,-0.025
31454,1755603841955,67.37,-92.42,-27.54,767,785,764,326,889,50.0,-0.921,-0.396,-0.025
31484,1755603841985,67.4,-92.45,-27.57,767,788,776,424,893,33.333333333333336,-0.923,-0.397,-0.024
31514,1755603842015,67.35,-92.46,-27.57,766,780,764,438,896,33.333333333333336,-0.921,-0.397,-0.023
31544,1755603842044,67.32,-92.51,-27.6,766,783,768,394,896,33.333333333333336,-0.92,-0.4,-0.022
31574,1755603842074,67.25,-92.48,-27.57,768,782,766,315,893,33.333333333333336,-0.92,-0.405,-0.024
31604,1755603842104,67.23,-92.5,-27.52,764,783,767,311,893,33.333333333333336,-0.922,-0.406,-0.027
31634,1755603842134,67.23,-92.54,-27.47,768,784,768,419,886,33.333333333333336,-0.922,-0.401,-0.026
31654,1755603842154,67.22,-92.56,-27.46,765,779,773,314,893,50.0,-0.922,-0.396,-0.022
31684,1755603842184,67.18,-92.55,-27.48,772,774,767,428,885,33.333333333333336,-0.922,-0.393,-0.02
31704,1755603842205,67.14,-92.61,-27.5,763,793,774,320,889,50.0,-0.922,-0.392,-0.019
31724,1755603842225,67.11,-92.66,-27.53,765,785,766,365,886,50.0,-0.922,-0.394,-0.019
31754,1755603842255,67.1,-92.65,-27.54,764,787,775,357,888,33.333333333333336,-0.922,-0.396,-0.018
31784,1755603842285,67.07,-92.52,-27.53,767,779,764,432,885,33.333333333333336,-0.921,-0.395,-0.016
31804,1755603842305,67.07,-92.48,-27.53,767,787,765,332,892,50.0,-0.921,-0.396,-0.017
31825,1755603842325,67.09,-92.5,-27.54,766,785,772,374,890,47.61904761904762,-0.921,-0.397,-0.02
31845,1755603842345,67.08,-92.55,-27.56,765,782,774,448,891,50.0,-0.92,-0.399,-0.022
31865,1755603842365,67.06,-92.57,-27.57,766,776,775,413,891,50.0,-0.919,-0.401,-0.023
31895,1755603842395,66.98,-92.56,-27.6,766,780,771,387,888,33.333333333333336,-0.92,-0.401,-0.024
31945,1755603842446,66.77,-92.61,-27.61,764,781,773,429,895,50.0,-0.919,-0.4,-0.02
31995,1755603842496,66.73,-92.53,-27.56,768,787,768,415,881,33.333333333333336,-0.921,-0.401,-0.013
32015,1755603842515,66.7,-92.49,-27.55,771,782,764,354,889,50.0,-0.921,-0.4,-0.014
32045,1755603842546,66.7,-92.53,-27.56,765,783,771,386,888,33.333333333333336,-0.92,-0.398,-0.014
32065,1755603842566,66.69,-92.5,-27.56,767,777,772,379,889,50.0,-0.92,-0.395,-0.012
32095,1755603842595,66.67,-92.49,-27.57,765,788,773,408,888,33.333333333333336,-0.922,-0.396,-0.011
32125,1755603842625,66.68,-92.47,-27.58,768,785,764,313,884,33.333333333333336,-0.921,-0.396,-0.01
32155,1755603842656,66.71,-92.43,-27.59,768,780,774,272,887,33.333333333333336,-0.92,-0.396,-0.01
32175,1755603842675,66.73,-92.41,-27.6,768,778,768,354,894,50.0,-0.92,-0.396,-0.011
32205,1755603842706,66.73,-92.38,-27.61,762,782,770,358,893,33.333333333333336,-0.921,-0.397,-0.011
32225,1755603842726,66.71,-92.36,-27.62,770,783,770,385,894,50.0,-0.92,-0.396,-0.01
32245,1755603842746,66.7,-92.32,-27.63,767,785,768,476,888,50.0,-0.918,-0.397,-0.011
32265,1755603842766,66.72,-92.3,-27.65,762,779,769,410,888,50.0,-0.92,-0.397,-0.012
32285,1755603842786,66.74,-92.33,-27.68,762,780,768,349,883,50.0,-0.922,-0.398,-0.014
32315,1755603842816,66.75,-92.41,-27.7,768,772,772,407,889,33.333333333333336,-0.922,-0.399,-0.015
32336,1755603842837,66.73,-92.47,-27.72,766,780,769,327,893,47.61904761904762,-0.92,-0.398,-0.016
32356,1755603842857,66.73,-92.51,-27.74,766,778,774,321,878,50.0,-0.92,-0.398,-0.015
32386,1755603842886,66.7,-92.5,-27.73,762,781,772,365,890,33.333333333333336,-0.92,-0.397,-0.013
32416,1755603842916,66.69,-92.45,-27.73,763,785,775,435,898,33.333333333333336,-0.919,-0.398,-0.012
32436,1755603842937,66.7,-92.4,-27.73,765,784,769,336,892,50.0,-0.919,-0.398,-0.011
32456,1755603842956,66.72,-92.33,-27.72,765,782,768,333,892,50.0,-0.92,-0.399,-0.01
32486,1755603842986,66.74,-92.22,-27.69,764,784,768,361,893,33.333333333333336,-0.922,-0.4,-0.01
32516,1755603843016,66.75,-92.25,-27.7,766,781,774,436,885,33.333333333333336,-0.919,-0.399,-0.014
32546,1755603843046,66.77,-92.36,-27.75,764,785,764,416,884,33.333333333333336,-0.918,-0.4,-0.017
32576,1755603843076,66.72,-92.4,-27.79,767,783,772,271,890,33.333333333333336,-0.918,-0.399,-0.016
32596,1755603843096,66.68,-92.41,-27.81,771,780,768,425,893,50.0,-0.917,-0.398,-0.015
32616,1755603843116,66.68,-92.43,-27.84,763,782,769,389,885,50.0,-0.918,-0.398,-0.012
32646,1755603843146,66.68,-92.38,-27.84,762,789,766,413,890,33.333333333333336,-0.92,-0.4,-0.009
32676,1755603843176,66.67,-92.35,-27.84,769,778,779,258,884,33.333333333333336,-0.919,-0.401,-0.009
32696,1755603843196,66.69,-92.32,-27.85,759,781,771,423,889,50.0,-0.919,-0.4,-0.01
32716,1755603843216,66.7,-92.3,-27.86,767,785,768,389,883,50.0,-0.92,-0.399,-0.01
32746,1755603843246,66.71,-92.31,-27.88,767,785,772,404,887,33.333333333333336,-0.919,-0.4,-0.011
32776,1755603843276,66.73,-92.26,-27.86,765,787,770,291,897,33.333333333333336,-0.919,-0.399,-0.01
32806,1755603843306,66.84,-92.27,-27.9,768,781,772,304,888,33.333333333333336,-0.916,-0.399,-0.009
32835,1755603843336,66.9,-92.2,-27.92,768,779,771,396,882,34.48275862068966,-0.918,-0.399,-0.011
32865,1755603843366,66.89,-92.1,-27.93,765,784,768,452,893,33.333333333333336,-0.92,-0.402,-0.014
32885,1755603843386,66.88,-92.09,-27.92,767,782,768,354,883,50.0,-0.92,-0.404,-0.016
32915,1755603843416,66.9,-92.07,-27.91,764,780,768,393,884,33.333333333333336,-0.917,-0.405,-0.017
32995,1755603843495,66.89,-92.01,-27.86,768,787,766,399,898,33.333333333333336,-0.919,-0.403,-0.016
33025,1755603843525,66.84,-91.98,-27.85,765,776,770,293,889,33.333333333333336,-0.918,-0.402,-0.015
33055,1755603843555,66.82,-92.0,-27.85,765,783,772,325,894,33.333333333333336,-0.916,-0.402,-0.016
33085,1755603843585,66.78,-92.05,-27.86,760,787,772,443,885,33.333333333333336,-0.918,-0.401,-0.016
33115,1755603843615,66.73,-92.05,-27.85,768,793,767,435,891,33.333333333333336,-0.919,-0.401,-0.014
33135,1755603843635,66.73,-92.06,-27.86,770,781,772,361,894,50.0,-0.92,-0.401,-0.012
33165,1755603843665,66.71,-92.0,-27.83,769,775,766,396,895,33.333333333333336,-0.92,-0.401,-0.01
33224,1755603843725,66.72,-92.05,-27.84,763,783,770,307,893,33.333333333333336,-0.919,-0.4,-0.01
33284,1755603843784,66.69,-92.03,-27.84,766,783,767,426,880,33.333333333333336,-0.919,-0.4,-0.011
33314,1755603843814,66.7,-91.99,-27.83,763,781,772,431,881,33.333333333333336,-0.92,-0.4,-0.012
33344,1755603843844,66.72,-91.99,-27.83,765,785,772,325,904,33.333333333333336,-0.92,-0.4,-0.011
33364,1755603843864,66.74,-91.99,-27.82,772,780,765,384,891,50.0,-0.92,-0.399,-0.01
33394,1755603843894,66.75,-91.96,-27.81,766,781,774,348,904,33.333333333333336,-0.92,-0.399,-0.01
33424,1755603843924,66.74,-91.94,-27.81,773,783,772,315,900,33.333333333333336,-0.92,-0.399,-0.011
33454,1755603843954,66.76,-91.96,-27.82,767,777,775,336,894,33.333333333333336,-0.92,-0.398,-0.01
33474,1755603843974,66.77,-91.94,-27.82,767,780,775,308,880,50.0,-0.919,-0.397,-0.01
33504,1755603844004,66.78,-91.89,-27.83,759,785,762,311,889,33.333333333333336,-0.92,-0.397,-0.01
33534,1755603844034,66.81,-91.86,-27.84,764,790,776,413,890,33.333333333333336,-0.92,-0.397,-0.011
33554,1755603844054,66.81,-91.88,-27.85,764,777,777,335,902,50.0,-0.92,-0.399,-0.012
33574,1755603844074,66.82,-91.88,-27.85,763,785,768,363,884,50.0,-0.919,-0.399,-0.013
33604,1755603844105,66.8,-91.87,-27.86,760,782,765,372,891,33.333333333333336,-0.919,-0.399,-0.013
33624,1755603844124,66.78,-91.87,-27.86,769,779,767,375,887,50.0,-0.92,-0.399,-0.013
33654,1755603844155,66.78,-91.85,-27.87,763,785,768,372,891,33.333333333333336,-0.92,-0.399,-0.012
33675,1755603844176,66.77,-91.84,-27.87,767,779,770,382,885,47.61904761904762,-0.92,-0.399,-0.012
33725,1755603844225,66.77,-91.73,-27.83,767,785,773,350,885,33.333333333333336,-0.921,-0.4,-0.012
33785,1755603844285,66.77,-91.66,-27.79,767,788,771,407,897,33.333333333333336,-0.92,-0.398,-0.011
33815,1755603844315,66.77,-91.63,-27.79,761,785,768,424,882,33.333333333333336,-0.921,-0.397,-0.012
33845,1755603844345,66.74,-91.61,-27.77,767,777,773,372,885,33.333333333333336,-0.92,-0.398,-0.012
33874,1755603844375,66.77,-91.6,-27.77,763,784,772,340,884,34.48275862068966,-0.921,-0.397,-0.011
33904,1755603844405,66.77,-91.58,-27.76,773,784,770,357,895,33.333333333333336,-0.921,-0.397,-0.01
33934,1755603844435,66.78,-91.54,-27.74,767,781,764,420,892,33.333333333333336,-0.921,-0.397,-0.009
33955,1755603844455,66.8,-91.51,-27.74,768,782,771,346,900,47.61904761904762,-0.921,-0.396,-0.009
33975,1755603844475,66.82,-91.48,-27.74,766,790,773,370,894,50.0,-0.919,-0.395,-0.011
33995,1755603844495,66.86,-91.5,-27.75,766,783,765,410,885,50.0,-0.922,-0.397,-0.011
34015,1755603844515,66.86,-91.51,-27.75,765,787,773,417,890,50.0,-0.921,-0.396,-0.013
34035,1755603844535,66.87,-91.52,-27.75,769,783,763,358,892,50.0,-0.922,-0.397,-0.012
34055,1755603844555,66.85,-91.47,-27.74,763,786,769,328,889,50.0,-0.922,-0.396,-0.01
34075,1755603844575,66.85,-91.46,-27.74,764,786,771,353,894,50.0,-0.921,-0.395,-0.011
34105,1755603844605,66.87,-91.45,-27.73,768,782,768,321,901,33.333333333333336,-0.922,-0.396,-0.01
34155,1755603844656,66.94,-91.47,-27.73,767,783,771,338,895,50.0,-0.924,-0.395,-0.01
34175,1755603844676,66.93,-91.44,-27.73,765,783,772,369,894,50.0,-0.923,-0.395,-0.01
34205,1755603844706,66.9,-91.38,-27.73,761,776,772,366,889,33.333333333333336,-0.923,-0.395,-0.011
34235,1755603844735,66.86,-91.25,-27.7,769,788,772,405,886,33.333333333333336,-0.923,-0.395,-0.009
34265,1755603844765,66.85,-91.11,-27.68,764,776,772,421,888,33.333333333333336,-0.924,-0.393,-0.007
34295,1755603844795,66.91,-91.11,-27.67,759,778,770,394,897,33.333333333333336,-0.923,-0.394,-0.008
34325,1755603844825,66.96,-91.12,-27.66,768,781,765,341,887,33.333333333333336,-0.922,-0.393,-0.009
34355,1755603844855,66.94,-91.11,-27.66,767,781,767,359,887,33.333333333333336,-0.921,-0.392,-0.009
34384,1755603844885,66.94,-91.13,-27.69,762,780,770,413,898,34.48275862068966,-0.921,-0.391,-0.009
34405,1755603844905,66.94,-91.13,-27.72,773,789,766,344,892,47.61904761904762,-0.922,-0.39,-0.008
34425,1755603844925,66.93,-91.14,-27.75,768,786,764,364,886,50.0,-0.925,-0.391,-0.007
34455,1755603844955,66.93,-91.14,-27.76,764,785,770,328,888,33.333333333333336,-0.924,-0.393,-0.007
34485,1755603844985,66.95,-91.14,-27.77,767,775,770,393,892,33.333333333333336,-0.923,-0.394,-0.007
34505,1755603845005,66.96,-91.14,-27.78,768,782,773,327,892,50.0,-0.923,-0.395,-0.008
34525,1755603845025,66.98,-91.14,-27.78,767,789,772,349,885,50.0,-0.923,-0.396,-0.008
34555,1755603845055,66.98,-91.12,-27.77,769,790,772,335,893,33.333333333333336,-0.922,-0.395,-0.009
34575,1755603845075,66.99,-91.15,-27.78,763,782,773,357,875,50.0,-0.923,-0.394,-0.009
34605,1755603845105,66.99,-91.18,-27.8,767,779,773,351,888,33.333333333333336,-0.922,-0.394,-0.01
34625,1755603845125,66.98,-91.2,-27.81,769,777,772,371,889,50.0,-0.922,-0.394,-0.009
34655,1755603845155,66.98,-91.24,-27.83,765,788,770,381,897,33.333333333333336,-0.922,-0.394,-0.008
34685,1755603845185,67.0,-91.32,-27.87,766,782,774,416,892,33.333333333333336,-0.922,-0.394,-0.009
34715,1755603845215,66.99,-91.38,-27.89,764,784,771,426,898,33.333333333333336,-0.922,-0.394,-0.009
34745,1755603845245,66.99,-91.41,-27.92,762,785,767,383,879,33.333333333333336,-0.923,-0.395,-0.009
34774,1755603845275,66.98,-91.42,-27.94,766,780,777,345,896,34.48275862068966,-0.922,-0.395,-0.009
34794,1755603845295,66.98,-91.42,-27.94,766,787,774,400,883,50.0,-0.923,-0.395,-0.008
34824,1755603845325,66.96,-91.44,-27.96,768,779,766,362,885,33.333333333333336,-0.923,-0.395,-0.008
34845,1755603845345,66.96,-91.45,-27.97,768,783,773,408,886,47.61904761904762,-0.922,-0.396,-0.008
34874,1755603845375,66.96,-91.41,-27.97,769,784,764,354,886,34.48275862068966,-0.922,-0.396,-0.007
34904,1755603845405,66.95,-91.36,-27.98,768,786,770,373,891,33.333333333333336,-0.922,-0.395,-0.008
34934,1755603845435,66.9,-91.33,-27.98,766,784,770,422,880,33.333333333333336,-0.92,-0.396,-0.008
34964,1755603845465,66.86,-91.31,-28.0,766,773,773,419,893,33.333333333333336,-0.922,-0.396,-0.009
34994,1755603845495,66.72,-91.23,-28.0,768,779,771,365,894,33.333333333333336,-0.923,-0.398,-0.009
35014,1755603845515,66.6,-91.14,-28.01,760,784,771,417,890,50.0,-0.918,-0.396,-0.009
35034,1755603845535,66.58,-91.15,-28.03,767,785,773,371,887,50.0,-0.919,-0.396,-0.007
35064,1755603845565,66.61,-91.15,-28.04,765,782,770,395,885,33.333333333333336,-0.923,-0.396,-0.003
35094,1755603845595,66.64,-91.07,-28.03,768,786,780,358,890,33.333333333333336,-0.922,-0.396,0.001
35114,1755603845614,66.67,-91.0,-28.02,765,779,765,390,887,50.0,-0.92,-0.395,0.003
35144,1755603845644,66.77,-90.99,-28.03,763,785,770,367,888,33.333333333333336,-0.921,-0.396,0.002
35174,1755603845674,66.85,-91.03,-28.05,764,778,767,349,888,33.333333333333336,-0.921,-0.397,-0.0
35194,1755603845694,66.89,-91.04,-28.05,768,780,769,395,899,50.0,-0.922,-0.398,-0.003
35224,1755603845724,66.91,-91.06,-28.06,763,788,767,318,888,33.333333333333336,-0.921,-0.398,-0.004
35254,1755603845754,66.88,-90.98,-28.06,768,781,770,356,887,33.333333333333336,-0.921,-0.397,-0.002
35274,1755603845774,66.86,-90.93,-28.08,773,783,768,346,886,50.0,-0.918,-0.396,-0.002
35294,1755603845794,66.9,-90.92,-28.12,768,787,771,403,892,50.0,-0.921,-0.398,-0.002
35324,1755603845825,66.89,-90.79,-28.09,768,775,770,352,891,33.333333333333336,-0.922,-0.399,-0.001
35344,1755603845845,66.9,-90.69,-28.07,767,787,769,358,890,50.0,-0.922,-0.399,-0.001
35365,1755603845865,66.94,-90.59,-28.06,762,782,774,419,889,47.61904761904762,-0.921,-0.399,-0.0
35395,1755603845895,66.99,-90.41,-28.01,770,775,774,371,892,33.333333333333336,-0.921,-0.397,0.001
35424,1755603845925,67.05,-90.3,-28.01,765,781,770,301,887,34.48275862068966,-0.921,-0.396,-0.001
35445,1755603845945,67.06,-90.28,-28.02,768,777,768,388,889,47.61904761904762,-0.921,-0.396,-0.004
35475,1755603845975,67.1,-90.36,-28.04,764,789,771,342,893,33.333333333333336,-0.922,-0.398,-0.008
35505,1755603846005,67.09,-90.42,-28.04,761,782,770,357,891,33.333333333333336,-0.923,-0.398,-0.009
35535,1755603846035,67.08,-90.45,-28.03,767,782,769,407,885,33.333333333333336,-0.922,-0.397,-0.006
35564,1755603846065,67.1,-90.43,-28.02,764,785,769,417,883,34.48275862068966,-0.922,-0.397,-0.003
35585,1755603846085,67.11,-90.41,-28.0,763,785,770,387,895,47.61904761904762,-0.923,-0.397,-0.001
35605,1755603846105,67.09,-90.39,-27.99,764,776,769,319,895,50.0,-0.922,-0.396,-0.002
35655,1755603846155,67.04,-90.38,-27.96,757,776,775,338,891,50.0,-0.92,-0.396,-0.005
35685,1755603846185,67.08,-90.38,-27.97,769,786,777,397,891,33.333333333333336,-0.921,-0.395,-0.005
35715,1755603846215,67.05,-90.37,-27.98,768,783,775,395,888,33.333333333333336,-0.922,-0.395,-0.004
35745,1755603846245,67.03,-90.47,-28.03,763,788,769,362,888,33.333333333333336,-0.92,-0.395,-0.006
