timestamp_ms,recv_timestamp_ms,pitch,roll,yaw,flex1,flex2,flex3,flex4,flex5,sampling_hz,accel_x,accel_y,accel_z
114247,1755607761584,29.04,-71.03,-27.48,795,775,815,353,838,0.2010454362685967,-0.482,-0.826,0.274
114277,1755607761587,29.08,-71.06,-27.49,794,773,805,356,848,33.333333333333336,-0.484,-0.827,0.272
114306,1755607761589,29.08,-71.07,-27.5,791,775,816,337,848,34.48275862068966,-0.484,-0.827,0.272
114336,1755607761591,29.08,-71.06,-27.51,793,770,810,378,848,33.333333333333336,-0.484,-0.827,0.275
114365,1755607761593,29.05,-71.01,-27.53,794,778,807,409,848,34.48275862068966,-0.483,-0.828,0.277
114395,1755607761595,29.0,-70.96,-27.59,795,779,806,378,846,33.333333333333336,-0.482,-0.827,0.276
114425,1755607761597,29.01,-70.95,-27.63,793,777,815,339,849,33.333333333333336,-0.482,-0.827,0.274
114454,1755607761598,28.98,-70.93,-27.63,795,768,814,367,850,34.48275862068966,-0.481,-0.828,0.274
114475,1755607761601,28.98,-70.96,-27.63,791,775,807,382,845,47.61904761904762,-0.482,-0.829,0.274
114504,1755607761603,29.02,-70.98,-27.62,793,776,812,374,848,34.48275862068966,-0.482,-0.828,0.275
114534,1755607761605,29.03,-70.96,-27.62,792,774,814,401,847,33.333333333333336,-0.48,-0.827,0.275
114563,1755607761608,29.07,-70.98,-27.6,795,769,813,406,851,34.48275862068966,-0.481,-0.829,0.276
114593,1755607761611,29.06,-71.02,-27.6,791,768,813,370,846,33.333333333333336,-0.481,-0.829,0.277
114623,1755607761640,29.08,-71.01,-27.59,794,774,812,344,847,33.333333333333336,-0.481,-0.828,0.277
114652,1755607761670,29.09,-70.95,-27.58,790,775,814,382,846,34.48275862068966,-0.481,-0.828,0.276
114682,1755607761699,29.09,-70.91,-27.59,792,772,808,397,844,33.333333333333336,-0.481,-0.827,0.275
114711,1755607761729,29.07,-70.97,-27.63,793,766,814,388,857,34.48275862068966,-0.482,-0.828,0.274
114741,1755607761759,29.07,-71.06,-27.64,793,779,813,347,852,33.333333333333336,-0.481,-0.826,0.273
114771,1755607761788,29.05,-71.19,-27.69,792,772,805,323,850,33.333333333333336,-0.482,-0.826,0.274
114800,1755607761818,28.97,-71.25,-27.73,791,778,813,384,852,34.48275862068966,-0.481,-0.828,0.275
114830,1755607761847,28.92,-71.22,-27.74,795,772,815,377,846,33.333333333333336,-0.481,-0.83,0.277
114859,1755607761877,28.91,-71.22,-27.74,790,778,814,355,850,34.48275862068966,-0.48,-0.83,0.277
114889,1755607761907,28.97,-71.18,-27.73,791,775,811,360,849,33.333333333333336,-0.479,-0.829,0.277
114919,1755607761936,28.95,-71.17,-27.74,791,768,811,399,849,33.333333333333336,-0.479,-0.829,0.276
114949,1755607761966,28.97,-71.18,-27.75,793,774,804,411,855,33.333333333333336,-0.48,-0.829,0.277
114978,1755607761996,28.98,-71.15,-27.77,787,779,816,382,849,34.48275862068966,-0.479,-0.829,0.277
114998,1755607762016,28.98,-71.17,-27.79,792,775,812,378,845,50.0,-0.479,-0.83,0.275
115028,1755607762045,29.0,-71.19,-27.79,790,773,811,356,850,33.333333333333336,-0.479,-0.83,0.274
115057,1755607762074,29.01,-71.19,-27.78,792,774,814,342,856,34.48275862068966,-0.48,-0.83,0.275
115087,1755607762104,29.03,-71.15,-27.77,791,774,812,366,846,33.333333333333336,-0.479,-0.83,0.276
115116,1755607762134,29.03,-71.16,-27.79,791,776,805,396,850,34.48275862068966,-0.478,-0.83,0.276
115195,1755607762213,29.05,-71.16,-27.79,790,779,810,390,847,34.48275862068966,-0.479,-0.829,0.274
115225,1755607762243,29.04,-71.21,-27.81,792,773,811,362,847,33.333333333333336,-0.479,-0.828,0.273
115255,1755607762273,29.05,-71.22,-27.81,794,775,811,314,845,33.333333333333336,-0.48,-0.83,0.274
115285,1755607762302,29.07,-71.21,-27.8,793,777,816,369,851,33.333333333333336,-0.48,-0.83,0.276
115314,1755607762332,29.08,-71.2,-27.78,791,774,807,388,849,34.48275862068966,-0.479,-0.83,0.276
115344,1755607762361,29.07,-71.17,-27.77,793,772,813,362,849,33.333333333333336,-0.477,-0.829,0.275
115373,1755607762391,29.08,-71.19,-27.77,792,778,814,346,849,34.48275862068966,-0.479,-0.828,0.273
115403,1755607762420,29.07,-71.22,-27.78,791,774,808,366,846,33.333333333333336,-0.481,-0.828,0.273
115432,1755607762450,29.09,-71.23,-27.77,793,775,809,406,853,34.48275862068966,-0.481,-0.827,0.274
115462,1755607762480,29.09,-71.24,-27.78,793,779,811,391,849,33.333333333333336,-0.479,-0.827,0.273
115492,1755607762509,29.07,-71.27,-27.8,792,776,816,352,849,33.333333333333336,-0.479,-0.829,0.272
115521,1755607762539,29.07,-71.26,-27.8,795,774,815,361,845,34.48275862068966,-0.48,-0.831,0.273
115551,1755607762568,29.07,-71.24,-27.77,793,768,813,399,844,33.333333333333336,-0.48,-0.832,0.273
115580,1755607762598,29.07,-71.24,-27.73,791,777,810,382,851,34.48275862068966,-0.479,-0.83,0.273
115610,1755607762627,29.06,-71.26,-27.72,791,775,812,357,850,33.333333333333336,-0.479,-0.828,0.274
115639,1755607762657,29.05,-71.26,-27.73,785,778,813,356,850,34.48275862068966,-0.48,-0.827,0.275
115669,1755607762687,29.01,-71.26,-27.73,792,771,804,376,846,33.333333333333336,-0.48,-0.828,0.274
115728,1755607762746,29.03,-71.28,-27.69,789,777,809,371,853,33.333333333333336,-0.482,-0.828,0.272
115788,1755607762805,28.99,-71.27,-27.71,789,768,811,362,848,33.333333333333336,-0.48,-0.828,0.272
115817,1755607762835,28.99,-71.3,-27.71,794,773,811,412,848,34.48275862068966,-0.478,-0.828,0.272
115847,1755607762864,28.96,-71.34,-27.73,793,779,816,409,849,33.333333333333336,-0.479,-0.826,0.273
115906,1755607762923,28.91,-71.39,-27.86,792,778,813,348,851,33.333333333333336,-0.481,-0.826,0.276
115935,1755607762953,28.89,-71.4,-27.88,791,778,812,374,846,34.48275862068966,-0.484,-0.83,0.272
115965,1755607762982,28.87,-71.45,-27.86,792,773,819,405,850,33.333333333333336,-0.485,-0.834,0.269
115994,1755607763011,28.87,-71.48,-27.8,792,777,804,368,842,34.48275862068966,-0.482,-0.834,0.269
116053,1755607763071,28.78,-71.58,-27.79,791,776,811,328,852,33.333333333333336,-0.476,-0.828,0.272
116083,1755607763100,28.76,-71.58,-27.82,790,777,810,389,847,33.333333333333336,-0.476,-0.826,0.274
116112,1755607763130,28.74,-71.6,-27.88,792,772,815,377,849,34.48275862068966,-0.478,-0.825,0.276
116171,1755607763189,28.68,-71.61,-28.02,794,779,811,355,848,34.48275862068966,-0.481,-0.826,0.277
116201,1755607763219,28.71,-71.59,-28.03,790,766,818,388,844,33.333333333333336,-0.483,-0.832,0.272
116231,1755607763248,28.75,-71.58,-27.98,795,779,808,396,845,33.333333333333336,-0.478,-0.835,0.269
116260,1755607763278,28.31,-71.57,-27.94,790,769,811,356,847,34.48275862068966,-0.472,-0.835,0.268
116290,1755607763307,28.34,-71.58,-27.92,792,776,812,338,846,33.333333333333336,-0.469,-0.835,0.271
116319,1755607763337,28.36,-71.54,-27.9,791,766,811,363,841,34.48275862068966,-0.468,-0.836,0.278
116349,1755607763366,28.43,-71.45,-27.85,792,770,806,378,848,33.333333333333336,-0.469,-0.835,0.284
116378,1755607763396,28.5,-71.29,-27.82,793,778,812,375,848,34.48275862068966,-0.471,-0.83,0.284
116408,1755607763425,28.5,-71.19,-27.85,793,778,814,355,851,33.333333333333336,-0.475,-0.824,0.281
116467,1755607763484,28.55,-71.11,-27.96,792,765,811,411,850,33.333333333333336,-0.48,-0.822,0.27
116526,1755607763543,28.46,-71.23,-28.09,793,773,814,367,844,33.333333333333336,-0.48,-0.827,0.264
116555,1755607763573,28.45,-71.28,-28.11,786,775,815,349,846,34.48275862068966,-0.479,-0.832,0.267
116585,1755607763602,28.43,-71.34,-28.11,791,774,807,378,843,33.333333333333336,-0.479,-0.836,0.271
116614,1755607763632,28.45,-71.3,-28.06,788,768,810,362,851,34.48275862068966,-0.476,-0.835,0.275
116644,1755607763661,28.49,-71.25,-28.04,789,773,816,356,844,33.333333333333336,-0.472,-0.83,0.28
116673,1755607763691,28.46,-71.17,-28.11,792,772,814,343,852,34.48275862068966,-0.47,-0.826,0.281
116703,1755607763721,28.48,-71.18,-28.19,784,773,810,368,848,33.333333333333336,-0.475,-0.829,0.279
116733,1755607763750,28.55,-71.17,-28.21,793,774,810,402,845,33.333333333333336,-0.479,-0.832,0.275
116762,1755607763780,28.56,-71.18,-28.21,791,774,814,396,847,34.48275862068966,-0.48,-0.833,0.271
116792,1755607763809,28.52,-71.19,-28.2,787,780,812,358,848,33.333333333333336,-0.481,-0.836,0.267
116821,1755607763839,28.43,-71.28,-28.17,786,778,814,378,848,34.48275862068966,-0.481,-0.835,0.262
116880,1755607763898,28.09,-71.52,-28.18,791,775,806,353,845,33.333333333333336,-0.481,-0.827,0.269
116910,1755607763927,27.92,-71.56,-28.25,790,774,811,343,850,33.333333333333336,-0.475,-0.828,0.28
116939,1755607763957,27.86,-71.53,-28.27,794,773,811,339,851,34.48275862068966,-0.469,-0.833,0.288
116969,1755607763986,27.9,-71.44,-28.22,787,777,811,344,843,33.333333333333336,-0.467,-0.839,0.291
116998,1755607764016,28.02,-71.25,-28.13,793,767,814,379,846,34.48275862068966,-0.465,-0.839,0.287
117028,1755607764046,28.06,-71.13,-28.08,792,774,817,365,845,33.333333333333336,-0.464,-0.835,0.28
117058,1755607764075,28.08,-71.1,-28.06,791,779,813,330,846,33.333333333333336,-0.468,-0.833,0.275
117087,1755607764105,27.96,-71.14,-28.08,791,769,812,358,849,34.48275862068966,-0.473,-0.829,0.277
117117,1755607764134,27.93,-71.13,-28.05,787,776,809,395,848,33.333333333333336,-0.477,-0.829,0.283
117146,1755607764164,27.92,-71.13,-28.03,790,776,814,396,852,34.48275862068966,-0.476,-0.825,0.286
117176,1755607764193,27.97,-71.08,-28.04,792,779,815,362,848,33.333333333333336,-0.472,-0.824,0.284
117205,1755607764223,28.04,-71.07,-28.1,791,778,812,373,845,34.48275862068966,-0.468,-0.825,0.283
117235,1755607764253,28.07,-70.95,-28.18,791,775,811,399,848,33.333333333333336,-0.47,-0.834,0.287
117265,1755607764282,27.95,-70.79,-28.24,793,778,805,369,847,33.333333333333336,-0.472,-0.834,0.286
117294,1755607764312,27.9,-70.75,-28.25,791,776,810,345,849,34.48275862068966,-0.477,-0.835,0.29
117324,1755607764341,27.94,-70.74,-28.2,794,776,814,339,847,33.333333333333336,-0.478,-0.831,0.293
117353,1755607764371,27.96,-70.71,-28.18,791,774,815,370,849,34.48275862068966,-0.477,-0.825,0.293
117383,1755607764400,27.96,-70.69,-28.22,789,774,813,404,841,33.333333333333336,-0.476,-0.821,0.29
117412,1755607764430,28.02,-70.69,-28.26,790,778,814,397,849,34.48275862068966,-0.475,-0.824,0.285
117442,1755607764460,28.07,-70.76,-28.29,792,769,812,356,848,33.333333333333336,-0.472,-0.828,0.28
117471,1755607764489,28.06,-70.8,-28.3,792,767,807,354,848,34.48275862068966,-0.471,-0.832,0.281
117501,1755607764519,28.0,-70.85,-28.32,789,776,807,395,850,33.333333333333336,-0.472,-0.831,0.288
117531,1755607764548,27.91,-70.86,-28.33,790,774,804,401,852,33.333333333333336,-0.473,-0.831,0.296
117560,1755607764578,27.92,-70.81,-28.29,789,774,807,380,846,34.48275862068966,-0.473,-0.831,0.297
117590,1755607764608,27.92,-70.75,-28.27,790,774,810,349,849,33.333333333333336,-0.471,-0.828,0.294
117620,1755607764637,27.95,-70.71,-28.3,794,774,812,378,845,33.333333333333336,-0.468,-0.825,0.29
117649,1755607764667,28.0,-70.7,-28.35,793,773,812,407,846,34.48275862068966,-0.466,-0.826,0.285
117679,1755607764696,28.0,-70.75,-28.39,788,778,811,382,852,33.333333333333336,-0.466,-0.829,0.282
117708,1755607764726,28.03,-70.79,-28.39,786,779,810,339,852,34.48275862068966,-0.47,-0.831,0.285
117738,1755607764755,27.98,-70.81,-28.4,793,773,811,356,846,33.333333333333336,-0.472,-0.83,0.294
