timestamp_ms,recv_timestamp_ms,pitch,roll,yaw,flex1,flex2,flex3,flex4,flex5,sampling_hz,accel_x,accel_y,accel_z
25955,1755601774852,13.15,47.6,14.39,782,853,822,426,870,33.333333333333336,-0.224,0.724,0.663
25984,1755601774854,13.15,47.64,14.41,783,847,834,396,872,34.48275862068966,-0.224,0.726,0.661
26013,1755601774856,13.15,47.63,14.42,775,850,823,328,878,34.48275862068966,-0.222,0.724,0.66
26043,1755601774858,13.15,47.6,14.41,779,852,827,357,875,33.333333333333336,-0.221,0.726,0.659
26072,1755601774860,13.14,47.62,14.39,783,841,825,423,882,34.48275862068966,-0.222,0.727,0.66
26102,1755601774862,13.14,47.61,14.38,774,862,824,412,878,33.333333333333336,-0.223,0.725,0.662
26131,1755601774864,13.13,47.61,14.38,783,842,830,330,882,34.48275862068966,-0.224,0.725,0.662
26160,1755601774866,13.13,47.59,14.38,777,849,839,347,873,34.48275862068966,-0.223,0.725,0.661
26190,1755601774868,13.14,47.6,14.37,781,847,833,421,872,33.333333333333336,-0.224,0.725,0.662
26219,1755601774870,13.14,47.61,14.38,784,851,820,412,877,34.48275862068966,-0.223,0.726,0.662
26249,1755601774872,13.14,47.61,14.36,778,846,827,321,878,33.333333333333336,-0.221,0.726,0.66
26278,1755601774874,13.13,47.57,14.34,782,851,826,324,871,34.48275862068966,-0.221,0.725,0.659
26308,1755601774876,13.08,47.63,14.33,775,846,820,418,865,33.333333333333336,-0.222,0.724,0.66
26367,1755601774880,13.08,47.69,14.33,777,848,829,385,880,33.333333333333336,-0.223,0.725,0.663
26396,1755601774882,13.08,47.67,14.32,784,846,825,323,877,34.48275862068966,-0.223,0.723,0.661
26426,1755601774885,13.08,47.63,14.31,784,845,825,370,875,33.333333333333336,-0.223,0.724,0.661
26455,1755601774887,13.07,47.62,14.31,782,849,832,444,879,34.48275862068966,-0.224,0.726,0.663
26514,1755601774891,13.07,47.65,14.3,782,848,817,315,873,34.48275862068966,-0.222,0.725,0.661
26573,1755601774896,13.05,47.59,14.27,775,845,833,436,874,34.48275862068966,-0.221,0.725,0.661
26602,1755601774898,13.05,47.59,14.27,785,848,831,420,878,34.48275862068966,-0.223,0.726,0.665
26632,1755601774900,13.06,47.62,14.27,782,847,822,332,878,33.333333333333336,-0.223,0.725,0.665
26662,1755601774902,13.07,47.63,14.27,780,852,819,324,880,33.333333333333336,-0.223,0.724,0.662
26691,1755601774904,13.06,47.6,14.27,788,838,832,413,874,34.48275862068966,-0.223,0.724,0.66
26720,1755601774906,13.06,47.57,14.28,780,839,830,425,882,34.48275862068966,-0.223,0.724,0.662
26750,1755601774907,13.07,47.57,14.27,777,845,825,347,875,33.333333333333336,-0.223,0.724,0.664
26779,1755601774909,13.07,47.58,14.28,779,846,827,308,869,34.48275862068966,-0.223,0.724,0.664
26809,1755601774911,13.08,47.57,14.27,783,850,833,386,873,33.333333333333336,-0.222,0.723,0.663
26838,1755601774914,13.08,47.54,14.26,782,841,819,418,879,34.48275862068966,-0.222,0.723,0.662
26897,1755601774918,13.07,47.55,14.26,781,843,823,330,871,34.48275862068966,-0.222,0.725,0.664
26917,1755601774920,13.07,47.57,14.26,782,842,826,409,873,50.0,-0.221,0.724,0.663
26947,1755601774922,13.06,47.55,14.26,783,848,824,334,875,33.333333333333336,-0.221,0.724,0.661
26976,1755601774923,13.05,47.51,14.26,788,856,823,363,880,34.48275862068966,-0.222,0.724,0.661
27006,1755601774926,13.05,47.55,14.26,780,848,826,449,875,33.333333333333336,-0.223,0.725,0.663
27035,1755601774928,13.06,47.59,14.26,778,855,831,401,877,34.48275862068966,-0.223,0.725,0.664
27064,1755601774930,13.06,47.63,14.26,782,845,826,324,882,34.48275862068966,-0.222,0.725,0.662
27094,1755601774932,13.04,47.6,14.27,784,851,820,308,878,33.333333333333336,-0.221,0.725,0.659
27123,1755601774933,13.04,47.55,14.24,778,843,822,395,877,34.48275862068966,-0.221,0.726,0.66
27152,1755601774936,13.04,47.56,14.22,783,842,829,400,875,34.48275862068966,-0.222,0.726,0.662
27182,1755601774938,13.04,47.58,14.22,782,850,830,324,878,33.333333333333336,-0.222,0.725,0.664
27211,1755601774940,13.05,47.6,14.22,781,842,821,344,876,34.48275862068966,-0.223,0.725,0.662
27231,1755601774942,13.05,47.6,14.22,775,842,830,372,876,50.0,-0.223,0.725,0.661
27261,1755601774943,13.05,47.58,14.22,781,840,825,376,879,33.333333333333336,-0.223,0.725,0.662
27290,1755601774945,13.05,47.58,14.22,779,845,834,460,872,34.48275862068966,-0.223,0.724,0.663
27320,1755601774948,13.06,47.59,14.22,786,846,833,429,877,33.333333333333336,-0.223,0.725,0.663
27349,1755601774949,13.06,47.57,14.23,787,845,832,340,884,34.48275862068966,-0.221,0.725,0.661
27378,1755601774951,13.05,47.55,14.21,782,851,823,337,873,34.48275862068966,-0.221,0.725,0.66
27408,1755601774953,13.02,47.57,14.2,785,842,824,392,868,33.333333333333336,-0.222,0.727,0.661
27437,1755601774954,13.03,47.58,14.17,786,844,820,431,872,34.48275862068966,-0.222,0.725,0.663
27466,1755601774977,13.05,47.58,14.17,782,847,820,350,876,34.48275862068966,-0.223,0.724,0.662
27496,1755601775006,13.05,47.56,14.18,778,842,829,340,874,33.333333333333336,-0.223,0.724,0.662
27555,1755601775065,13.05,47.58,14.2,783,848,831,434,878,33.333333333333336,-0.223,0.724,0.663
27584,1755601775095,13.06,47.6,14.21,782,852,835,389,871,34.48275862068966,-0.223,0.725,0.663
27613,1755601775124,13.06,47.59,14.2,778,848,812,318,869,34.48275862068966,-0.222,0.724,0.661
27643,1755601775153,13.05,47.56,14.2,783,845,824,375,883,33.333333333333336,-0.221,0.725,0.661
27672,1755601775182,13.05,47.56,14.19,782,847,825,450,875,34.48275862068966,-0.221,0.725,0.663
27701,1755601775212,13.05,47.58,14.18,784,837,823,360,871,34.48275862068966,-0.221,0.725,0.664
27731,1755601775241,13.06,47.56,14.17,781,836,817,318,870,33.333333333333336,-0.222,0.724,0.663
27760,1755601775271,13.05,47.54,14.18,780,848,822,359,870,34.48275862068966,-0.222,0.724,0.662
27790,1755601775301,13.05,47.52,14.17,777,839,824,436,878,33.333333333333336,-0.222,0.724,0.664
27810,1755601775320,13.05,47.53,14.17,783,851,826,323,877,50.0,-0.223,0.725,0.665
27839,1755601775350,13.04,47.54,14.18,783,844,827,415,890,34.48275862068966,-0.222,0.725,0.664
27869,1755601775380,13.04,47.52,14.18,779,849,825,399,877,33.333333333333336,-0.222,0.724,0.663
27899,1755601775409,13.04,47.5,14.16,778,847,828,281,861,33.333333333333336,-0.221,0.725,0.663
27928,1755601775438,13.03,47.49,14.15,781,849,824,315,885,34.48275862068966,-0.222,0.725,0.664
27957,1755601775467,13.04,47.51,14.14,787,843,831,400,862,34.48275862068966,-0.222,0.725,0.665
28016,1755601775526,13.03,47.55,14.15,784,850,822,332,877,33.333333333333336,-0.222,0.724,0.662
28045,1755601775556,13.03,47.53,14.15,781,850,828,331,879,34.48275862068966,-0.222,0.724,0.662
28075,1755601775585,13.01,47.53,14.14,787,845,828,412,877,33.333333333333336,-0.221,0.724,0.664
28104,1755601775615,13.02,47.52,14.13,781,845,827,435,885,34.48275862068966,-0.222,0.724,0.664
28134,1755601775644,13.0,47.53,14.14,785,845,832,369,877,33.333333333333336,-0.222,0.724,0.663
28163,1755601775674,13.01,47.51,14.12,782,847,824,329,873,34.48275862068966,-0.222,0.725,0.662
28193,1755601775703,13.0,47.5,14.12,788,843,823,328,875,33.333333333333336,-0.223,0.726,0.664
28222,1755601775733,13.0,47.49,14.12,788,840,828,431,872,34.48275862068966,-0.222,0.723,0.666
28251,1755601775762,13.01,47.5,14.11,773,849,831,397,876,34.48275862068966,-0.223,0.724,0.665
28281,1755601775792,13.01,47.5,14.11,785,840,826,305,870,33.333333333333336,-0.222,0.724,0.663
28310,1755601775821,13.01,47.48,14.1,781,849,822,343,878,34.48275862068966,-0.222,0.724,0.664
28340,1755601775850,13.01,47.47,14.12,782,840,816,427,874,33.333333333333336,-0.222,0.725,0.665
28398,1755601775909,12.98,47.52,14.18,783,850,825,334,868,34.48275862068966,-0.222,0.725,0.665
28428,1755601775938,12.98,47.52,14.21,776,842,826,333,872,33.333333333333336,-0.22,0.726,0.662
28457,1755601775967,12.99,47.49,14.2,777,850,817,388,869,34.48275862068966,-0.22,0.725,0.662
28486,1755601775997,12.98,47.46,14.2,787,839,822,403,877,34.48275862068966,-0.22,0.724,0.664
28516,1755601776027,12.99,47.47,14.2,784,855,828,342,879,33.333333333333336,-0.22,0.725,0.666
28536,1755601776046,13.0,47.49,14.2,783,848,826,436,874,50.0,-0.221,0.725,0.666
28565,1755601776076,13.01,47.5,14.21,778,851,826,334,878,34.48275862068966,-0.221,0.726,0.664
28595,1755601776105,13.0,47.47,14.21,784,844,825,356,875,33.333333333333336,-0.219,0.725,0.662
28624,1755601776134,13.01,47.45,14.2,787,844,827,423,887,34.48275862068966,-0.219,0.726,0.662
28683,1755601776193,13.01,47.47,14.2,781,835,813,346,879,33.333333333333336,-0.22,0.727,0.665
28712,1755601776223,13.0,47.48,14.21,779,848,825,341,880,34.48275862068966,-0.219,0.725,0.664
28742,1755601776252,13.0,47.46,14.2,781,842,825,395,876,33.333333333333336,-0.219,0.724,0.663
28771,1755601776281,13.0,47.45,14.19,787,847,826,438,888,34.48275862068966,-0.219,0.726,0.664
28800,1755601776311,13.0,47.46,14.18,786,841,824,380,875,34.48275862068966,-0.22,0.726,0.665
28830,1755601776341,13.0,47.48,14.18,781,848,820,340,875,33.333333333333336,-0.219,0.726,0.662
28860,1755601776370,12.99,47.45,14.17,776,846,831,371,880,33.333333333333336,-0.218,0.725,0.662
28889,1755601776399,12.96,47.41,14.16,783,845,828,441,879,34.48275862068966,-0.219,0.725,0.663
28918,1755601776429,12.96,47.39,14.15,778,838,823,409,873,34.48275862068966,-0.22,0.724,0.666
28948,1755601776459,12.97,47.41,14.15,783,847,826,346,876,33.333333333333336,-0.221,0.725,0.667
28978,1755601776488,12.98,47.43,14.15,781,856,828,360,877,33.333333333333336,-0.22,0.725,0.666
29007,1755601776517,12.98,47.43,14.14,776,847,821,406,880,34.48275862068966,-0.219,0.724,0.663
29036,1755601776547,12.96,47.42,14.13,784,853,822,416,872,34.48275862068966,-0.218,0.725,0.662
29066,1755601776576,12.96,47.4,14.11,785,848,823,346,881,33.333333333333336,-0.217,0.725,0.662
29095,1755601776606,12.94,47.39,14.1,785,840,828,335,877,34.48275862068966,-0.219,0.725,0.663
29124,1755601776635,12.93,47.42,14.1,781,845,824,415,882,34.48275862068966,-0.219,0.725,0.664
29154,1755601776665,12.92,47.44,14.09,786,849,827,425,876,33.333333333333336,-0.219,0.724,0.664
29183,1755601776694,12.91,47.46,14.1,783,840,829,374,882,34.48275862068966,-0.22,0.724,0.664
29213,1755601776723,12.9,47.45,14.1,782,849,840,324,872,33.333333333333336,-0.219,0.724,0.663
29242,1755601776753,12.9,47.43,14.08,780,848,823,380,884,34.48275862068966,-0.219,0.724,0.664
29271,1755601776782,12.89,47.41,14.08,786,845,826,427,875,34.48275862068966,-0.219,0.724,0.665
29301,1755601776811,12.88,47.45,14.08,784,846,829,396,871,33.333333333333336,-0.22,0.725,0.666
29330,1755601776841,12.88,47.47,14.08,782,844,827,333,872,34.48275862068966,-0.22,0.725,0.664
29360,1755601776870,12.88,47.46,14.08,784,846,829,370,878,33.333333333333336,-0.219,0.724,0.663
29389,1755601776900,12.87,47.43,14.09,788,848,819,441,881,34.48275862068966,-0.219,0.724,0.664
29419,1755601776929,12.86,47.42,14.09,787,856,827,418,871,33.333333333333336,-0.218,0.725,0.666
29448,1755601776958,12.86,47.44,14.08,774,851,822,320,878,34.48275862068966,-0.219,0.725,0.666
29477,1755601776988,12.85,47.45,14.09,785,842,823,355,876,34.48275862068966,-0.219,0.724,0.664
29537,1755601777047,12.85,47.43,14.08,781,845,825,435,883,33.333333333333336,-0.219,0.725,0.665
29566,1755601777076,12.86,47.44,14.07,778,851,826,348,877,34.48275862068966,-0.219,0.724,0.665
29595,1755601777106,12.87,47.47,14.07,782,844,825,328,871,34.48275862068966,-0.218,0.724,0.665
29625,1755601777135,12.87,47.46,14.07,781,846,827,404,875,33.333333333333336,-0.218,0.724,0.664
29654,1755601777164,12.87,47.44,14.07,777,845,820,393,873,34.48275862068966,-0.218,0.724,0.663
29683,1755601777194,12.87,47.44,14.07,781,847,829,348,876,34.48275862068966,-0.218,0.724,0.664
29713,1755601777223,12.88,47.43,14.06,776,847,827,322,869,33.333333333333336,-0.219,0.725,0.665
29742,1755601777253,12.88,47.44,14.06,781,849,817,369,873,34.48275862068966,-0.218,0.725,0.665
29830,1755601777341,12.87,47.41,14.03,789,842,824,319,876,34.48275862068966,-0.218,0.724,0.665
29860,1755601777370,12.88,47.43,14.03,782,841,816,322,870,33.333333333333336,-0.22,0.724,0.666
29889,1755601777399,12.88,47.46,14.05,789,837,838,432,874,34.48275862068966,-0.221,0.724,0.666
29918,1755601777429,12.89,47.47,14.06,786,858,825,405,877,34.48275862068966,-0.219,0.724,0.663
29948,1755601777458,12.87,47.45,14.07,783,845,825,314,881,33.333333333333336,-0.217,0.724,0.662
29977,1755601777488,12.86,47.44,14.05,778,847,823,344,873,34.48275862068966,-0.217,0.726,0.665
30007,1755601777517,12.86,47.46,14.03,780,844,840,429,877,33.333333333333336,-0.218,0.726,0.666
30036,1755601777546,12.42,47.44,14.03,785,841,831,397,879,34.48275862068966,-0.219,0.723,0.664
30065,1755601777576,12.41,47.41,14.04,785,844,826,318,867,34.48275862068966,-0.219,0.723,0.662
30095,1755601777605,12.41,47.42,14.04,786,855,825,288,874,33.333333333333336,-0.218,0.725,0.664
30124,1755601777635,12.43,47.44,14.04,782,851,825,391,873,34.48275862068966,-0.218,0.726,0.665
30154,1755601777664,12.43,47.44,14.04,785,846,830,407,872,33.333333333333336,-0.217,0.724,0.663
30183,1755601777694,12.42,47.42,14.03,782,842,827,354,873,34.48275862068966,-0.216,0.724,0.662
30213,1755601777723,12.42,47.41,14.01,780,847,827,307,876,33.333333333333336,-0.217,0.725,0.665
30242,1755601777753,12.42,47.41,14.01,782,841,822,384,869,34.48275862068966,-0.218,0.725,0.666
30272,1755601777782,12.41,47.43,14.01,782,850,831,439,873,33.333333333333336,-0.217,0.724,0.665
30301,1755601777812,12.41,47.43,14.02,779,845,826,389,874,34.48275862068966,-0.217,0.724,0.665
30331,1755601777841,12.4,47.43,14.02,780,849,820,301,876,33.333333333333336,-0.217,0.725,0.665
30360,1755601777871,12.39,47.45,14.01,773,839,827,353,883,34.48275862068966,-0.217,0.725,0.666
30390,1755601777900,12.38,47.48,14.02,784,847,831,438,872,33.333333333333336,-0.217,0.725,0.666
30419,1755601777929,12.38,47.49,14.02,785,843,833,411,867,34.48275862068966,-0.217,0.725,0.666
30448,1755601777959,12.36,47.48,14.04,778,841,823,322,866,34.48275862068966,-0.217,0.725,0.663
30478,1755601777988,12.34,47.45,14.03,786,838,826,334,878,33.333333333333336,-0.216,0.725,0.664
30507,1755601778018,12.34,47.42,14.02,781,847,828,424,874,34.48275862068966,-0.216,0.726,0.666
30566,1755601778077,12.34,47.44,14.02,780,847,825,308,870,34.48275862068966,-0.216,0.723,0.665
30596,1755601778106,12.33,47.45,14.04,780,839,826,315,872,33.333333333333336,-0.216,0.723,0.666
30625,1755601778136,12.35,47.43,14.05,777,847,822,390,884,34.48275862068966,-0.217,0.723,0.667
30655,1755601778165,12.36,47.44,14.06,780,834,829,443,879,33.333333333333336,-0.218,0.724,0.667
30684,1755601778195,12.38,47.42,14.07,782,856,825,404,878,34.48275862068966,-0.218,0.723,0.666
30714,1755601778224,12.39,47.4,14.07,783,838,820,318,876,33.333333333333336,-0.217,0.723,0.666
30743,1755601778254,12.41,47.38,14.06,783,845,821,353,889,34.48275862068966,-0.216,0.725,0.666
30773,1755601778283,12.42,47.36,14.06,779,843,813,451,874,33.333333333333336,-0.214,0.724,0.667
30802,1755601778312,12.43,47.34,14.02,783,853,825,428,874,34.48275862068966,-0.213,0.724,0.667
30831,1755601778342,12.44,47.33,14.0,779,846,830,336,875,34.48275862068966,-0.214,0.724,0.667
30861,1755601778371,12.44,47.32,14.0,785,846,824,353,877,33.333333333333336,-0.215,0.724,0.666
30890,1755601778400,12.41,47.32,14.01,784,845,829,424,873,34.48275862068966,-0.214,0.724,0.666
30919,1755601778430,12.43,47.3,13.99,786,851,825,402,874,34.48275862068966,-0.215,0.724,0.667
30978,1755601778488,12.41,47.3,14.02,776,839,829,332,873,34.48275862068966,-0.215,0.723,0.667
31007,1755601778518,12.41,47.3,14.03,786,839,823,419,882,34.48275862068966,-0.215,0.723,0.667
31037,1755601778547,12.43,47.31,14.02,780,834,822,431,870,33.333333333333336,-0.215,0.724,0.668
31066,1755601778577,12.42,47.31,14.04,777,851,815,356,868,34.48275862068966,-0.215,0.723,0.666
31096,1755601778607,12.42,47.27,14.04,784,845,832,328,869,33.333333333333336,-0.214,0.722,0.666
31125,1755601778636,12.41,47.26,14.04,781,846,823,391,874,34.48275862068966,-0.214,0.724,0.669
31155,1755601778665,12.42,47.27,14.03,785,847,825,449,880,33.333333333333336,-0.215,0.724,0.67
31184,1755601778695,12.43,47.31,14.05,784,847,824,417,880,34.48275862068966,-0.216,0.725,0.67
31214,1755601778724,12.42,47.33,14.07,785,851,831,330,872,33.333333333333336,-0.214,0.724,0.668
31243,1755601778753,12.43,47.29,14.07,783,848,823,367,872,34.48275862068966,-0.213,0.723,0.667
31272,1755601778783,12.42,47.31,14.07,775,845,827,455,873,34.48275862068966,-0.212,0.724,0.668
31302,1755601778812,12.42,47.32,14.07,782,848,830,411,868,33.333333333333336,-0.213,0.724,0.668
31361,1755601778871,12.42,47.35,14.08,783,847,818,351,874,33.333333333333336,-0.213,0.723,0.667
31390,1755601778901,12.42,47.34,14.09,782,851,820,430,882,34.48275862068966,-0.214,0.724,0.667
31420,1755601778930,12.41,47.33,14.12,781,846,824,439,871,33.333333333333336,-0.212,0.723,0.666
31449,1755601778960,12.43,47.35,14.1,781,842,833,334,869,34.48275862068966,-0.212,0.725,0.667
31479,1755601778989,12.42,47.38,14.1,777,846,823,290,871,33.333333333333336,-0.212,0.725,0.667
31508,1755601779019,12.41,47.38,14.11,781,852,816,329,874,34.48275862068966,-0.212,0.724,0.667
31538,1755601779048,12.41,47.37,14.11,777,849,827,415,867,33.333333333333336,-0.212,0.723,0.668
31567,1755601779077,12.41,47.39,14.11,783,844,824,368,868,34.48275862068966,-0.213,0.724,0.668
31596,1755601779107,12.42,47.43,14.12,781,846,830,331,878,34.48275862068966,-0.212,0.723,0.667
31655,1755601779165,12.41,47.45,14.13,779,846,823,441,872,34.48275862068966,-0.21,0.725,0.664
31684,1755601779195,12.4,47.46,14.12,780,857,823,402,875,34.48275862068966,-0.209,0.724,0.665
31714,1755601779224,12.4,47.47,14.13,780,842,829,312,874,33.333333333333336,-0.209,0.726,0.665
31743,1755601779254,12.39,47.46,14.12,776,843,827,340,878,34.48275862068966,-0.209,0.725,0.663
31772,1755601779283,12.38,47.45,14.11,782,843,817,437,876,34.48275862068966,-0.209,0.725,0.664
31802,1755601779312,12.39,47.43,14.09,784,850,821,412,873,33.333333333333336,-0.21,0.725,0.665
31861,1755601779371,12.37,47.46,14.1,785,843,828,354,878,33.333333333333336,-0.211,0.724,0.666
31890,1755601779401,12.35,47.46,14.11,779,845,825,424,876,34.48275862068966,-0.21,0.724,0.666
31920,1755601779430,12.36,47.47,14.11,786,846,819,434,867,33.333333333333336,-0.211,0.725,0.666
31949,1755601779460,12.36,47.47,14.11,776,851,822,367,870,34.48275862068966,-0.211,0.726,0.666
31979,1755601779490,12.35,47.47,14.11,784,841,827,339,879,33.333333333333336,-0.209,0.726,0.664
32009,1755601779519,12.35,47.47,14.09,778,850,825,394,873,33.333333333333336,-0.209,0.727,0.662
32038,1755601779549,12.34,47.46,14.09,780,853,824,451,864,34.48275862068966,-0.21,0.726,0.664
32068,1755601779578,12.35,47.47,14.08,783,845,823,406,876,33.333333333333336,-0.21,0.726,0.666
32097,1755601779607,12.35,47.47,14.09,783,847,823,323,875,34.48275862068966,-0.211,0.725,0.666
32126,1755601779637,12.34,47.48,14.1,779,850,825,350,868,34.48275862068966,-0.21,0.725,0.664
32156,1755601779667,12.34,47.47,14.08,782,841,826,456,878,33.333333333333336,-0.209,0.726,0.663
32186,1755601779696,12.32,47.43,14.08,779,843,822,415,869,33.333333333333336,-0.209,0.725,0.664
32215,1755601779726,12.31,47.44,14.06,776,844,819,325,872,34.48275862068966,-0.21,0.726,0.666
32245,1755601779755,12.31,47.47,14.07,778,845,824,336,872,33.333333333333336,-0.211,0.727,0.666
32274,1755601779784,12.29,47.48,14.07,781,847,832,432,872,34.48275862068966,-0.209,0.726,0.664
32303,1755601779814,12.28,47.46,14.06,786,845,824,430,873,34.48275862068966,-0.208,0.725,0.663
32333,1755601779843,12.26,47.44,14.05,783,845,834,346,878,33.333333333333336,-0.208,0.726,0.664
32362,1755601779872,12.25,47.44,14.03,783,843,827,333,877,34.48275862068966,-0.208,0.726,0.665
32391,1755601779902,12.25,47.44,14.02,784,844,826,394,880,34.48275862068966,-0.209,0.726,0.665
32421,1755601779931,12.23,47.42,14.02,776,846,817,429,873,33.333333333333336,-0.209,0.725,0.665
32450,1755601779961,12.23,47.43,14.01,783,851,831,382,880,34.48275862068966,-0.209,0.726,0.665
32480,1755601779990,12.24,47.44,14.0,777,841,828,326,875,33.333333333333336,-0.21,0.726,0.667
32509,1755601780020,12.22,47.44,14.02,788,840,831,372,877,34.48275862068966,-0.209,0.725,0.666
32539,1755601780049,12.21,47.44,14.0,780,845,834,410,876,33.333333333333336,-0.208,0.725,0.666
32568,1755601780078,12.2,47.45,14.0,782,836,831,398,875,34.48275862068966,-0.209,0.725,0.667
32597,1755601780108,12.2,47.46,13.98,782,847,827,298,865,34.48275862068966,-0.209,0.726,0.666
32627,1755601780137,12.2,47.47,13.97,785,849,825,347,879,33.333333333333336,-0.209,0.726,0.667
32656,1755601780166,12.18,47.47,13.96,781,845,823,452,867,34.48275862068966,-0.208,0.725,0.666
32685,1755601780196,12.2,47.45,13.93,779,842,821,406,876,34.48275862068966,-0.208,0.725,0.664
32744,1755601780255,12.19,47.37,13.91,781,851,829,320,872,34.48275862068966,-0.21,0.724,0.666
32774,1755601780284,12.2,47.39,13.91,785,847,825,401,873,33.333333333333336,-0.212,0.725,0.669
32803,1755601780313,12.21,47.45,13.93,785,843,827,411,881,34.48275862068966,-0.211,0.725,0.668
32832,1755601780343,12.22,47.46,13.94,784,849,821,336,877,34.48275862068966,-0.21,0.725,0.664
32892,1755601780402,12.22,47.44,13.93,784,846,837,393,870,33.333333333333336,-0.208,0.726,0.666
32921,1755601780432,12.22,47.48,13.91,783,843,822,439,873,34.48275862068966,-0.209,0.727,0.668
32950,1755601780461,12.21,47.53,13.91,788,848,840,390,875,34.48275862068966,-0.208,0.725,0.666
32980,1755601780490,12.2,47.51,13.9,784,839,823,331,872,33.333333333333336,-0.208,0.725,0.664
33009,1755601780520,12.2,47.5,13.89,791,844,830,353,870,34.48275862068966,-0.209,0.726,0.666
33039,1755601780549,12.19,47.51,13.89,782,838,819,452,871,33.333333333333336,-0.208,0.727,0.666
33068,1755601780579,12.18,47.52,13.89,782,843,827,410,875,34.48275862068966,-0.207,0.726,0.665
33098,1755601780608,12.17,47.51,13.88,782,838,823,322,880,33.333333333333336,-0.208,0.725,0.666
33127,1755601780638,12.16,47.51,13.88,781,857,827,335,875,34.48275862068966,-0.209,0.725,0.668
33157,1755601780667,12.17,47.49,13.88,781,860,828,419,873,33.333333333333336,-0.209,0.724,0.668
33186,1755601780697,12.18,47.51,13.91,786,844,819,427,876,34.48275862068966,-0.209,0.725,0.667
33215,1755601780726,12.18,47.52,13.92,782,847,828,340,880,34.48275862068966,-0.208,0.726,0.666
33245,1755601780755,12.19,47.51,13.92,785,848,819,334,875,33.333333333333336,-0.208,0.726,0.664
33274,1755601780785,12.18,47.47,13.93,787,847,840,408,881,34.48275862068966,-0.207,0.725,0.666
33304,1755601780814,12.19,47.45,13.92,780,840,823,428,872,33.333333333333336,-0.208,0.725,0.668
33333,1755601780844,12.2,47.45,13.94,785,846,822,375,868,34.48275862068966,-0.209,0.727,0.668
33362,1755601780873,12.19,47.45,13.96,773,840,822,331,869,34.48275862068966,-0.207,0.725,0.667
33392,1755601780902,12.2,47.42,13.94,782,845,819,387,877,33.333333333333336,-0.207,0.725,0.666
33421,1755601780932,12.18,47.43,13.95,779,844,822,456,869,34.48275862068966,-0.207,0.726,0.667
33451,1755601780961,12.19,47.43,13.95,781,848,826,391,876,33.333333333333336,-0.207,0.725,0.669
33480,1755601780990,12.19,47.43,13.97,780,839,825,322,873,34.48275862068966,-0.208,0.725,0.668
33509,1755601781020,12.19,47.43,13.98,781,844,824,352,876,34.48275862068966,-0.207,0.725,0.666
33539,1755601781049,12.18,47.42,14.0,785,843,820,427,873,33.333333333333336,-0.206,0.725,0.666
33568,1755601781079,12.17,47.43,13.99,775,847,825,404,879,34.48275862068966,-0.206,0.726,0.668
33598,1755601781108,12.17,47.44,14.0,781,849,826,331,873,33.333333333333336,-0.205,0.726,0.668
33627,1755601781138,12.16,47.43,13.99,779,846,818,308,876,34.48275862068966,-0.206,0.725,0.667
33656,1755601781167,12.16,47.41,14.0,780,844,828,421,878,34.48275862068966,-0.206,0.725,0.668
33686,1755601781196,12.15,47.41,14.01,786,843,829,415,876,33.333333333333336,-0.206,0.725,0.668
33715,1755601781226,12.15,47.42,14.02,779,838,828,333,886,34.48275862068966,-0.206,0.726,0.667
33745,1755601781256,12.15,47.41,14.02,784,851,819,322,875,33.333333333333336,-0.205,0.727,0.667
33775,1755601781285,12.14,47.38,14.01,784,848,824,396,874,33.333333333333336,-0.204,0.727,0.667
33804,1755601781314,12.14,47.38,14.0,778,842,821,427,874,34.48275862068966,-0.204,0.727,0.667
33833,1755601781344,12.13,47.36,13.99,783,846,825,384,873,34.48275862068966,-0.204,0.726,0.668
33863,1755601781373,12.14,47.36,13.97,784,845,829,306,872,33.333333333333336,-0.205,0.727,0.668
33892,1755601781403,12.12,47.33,13.98,777,840,819,357,875,34.48275862068966,-0.205,0.726,0.667
33922,1755601781432,12.11,47.28,13.96,781,839,822,421,870,33.333333333333336,-0.205,0.725,0.666
33951,1755601781461,12.09,47.27,13.96,777,848,824,402,880,34.48275862068966,-0.205,0.726,0.669
33980,1755601781491,12.1,47.29,13.95,781,843,822,323,883,34.48275862068966,-0.205,0.725,0.671
34010,1755601781520,12.09,47.29,13.95,781,841,825,339,867,33.333333333333336,-0.205,0.725,0.668
34039,1755601781549,12.08,47.28,13.94,775,846,821,442,876,34.48275862068966,-0.205,0.724,0.667
34068,1755601781579,12.07,47.26,13.93,784,856,820,406,874,34.48275862068966,-0.205,0.725,0.669
34098,1755601781609,12.07,47.27,13.93,782,847,819,288,869,33.333333333333336,-0.205,0.725,0.672
34127,1755601781638,12.09,47.31,13.92,782,854,822,329,872,34.48275862068966,-0.205,0.725,0.671
34157,1755601781667,12.09,47.32,13.91,778,842,831,429,870,33.333333333333336,-0.206,0.723,0.67
34186,1755601781696,12.11,47.29,13.93,781,848,821,439,878,34.48275862068966,-0.207,0.722,0.67
34215,1755601781726,12.11,47.31,13.97,787,844,825,348,867,34.48275862068966,-0.207,0.723,0.669
34245,1755601781756,12.13,47.34,13.99,783,844,822,329,865,33.333333333333336,-0.205,0.725,0.668
34275,1755601781785,12.13,47.35,14.01,780,849,815,401,867,33.333333333333336,-0.203,0.726,0.666
34304,1755601781814,12.13,47.32,13.99,784,845,830,447,875,34.48275862068966,-0.202,0.725,0.667
34333,1755601781844,12.13,47.29,13.97,777,844,829,386,876,34.48275862068966,-0.203,0.725,0.668
34363,1755601781874,12.11,47.28,13.96,776,846,824,327,870,33.333333333333336,-0.205,0.726,0.67
34393,1755601781903,12.12,47.3,13.95,785,836,819,353,872,33.333333333333336,-0.207,0.724,0.67
34422,1755601781933,12.12,47.3,13.95,783,834,827,443,875,34.48275862068966,-0.207,0.723,0.67
34452,1755601781962,12.12,47.29,13.96,788,845,825,422,878,33.333333333333336,-0.206,0.724,0.669
34481,1755601781991,12.11,47.27,13.96,776,845,828,284,867,34.48275862068966,-0.205,0.724,0.667
34510,1755601782021,12.1,47.26,13.96,778,845,820,323,873,34.48275862068966,-0.204,0.725,0.668
34540,1755601782050,12.1,47.26,13.94,779,845,817,403,864,33.333333333333336,-0.204,0.725,0.669
34569,1755601782080,12.09,47.27,13.93,783,839,825,416,875,34.48275862068966,-0.204,0.725,0.669
34598,1755601782109,12.09,47.25,13.92,781,855,830,329,871,34.48275862068966,-0.204,0.724,0.669
34628,1755601782139,12.08,47.26,13.93,781,835,819,332,869,33.333333333333336,-0.205,0.724,0.669
34657,1755601782168,12.08,47.26,13.93,780,848,819,409,877,34.48275862068966,-0.205,0.724,0.669
34686,1755601782197,12.08,47.27,13.94,777,844,819,427,873,34.48275862068966,-0.204,0.725,0.67
34716,1755601782226,12.08,47.26,13.94,784,837,821,363,875,33.333333333333336,-0.203,0.724,0.669
