timestamp_ms,recv_timestamp_ms,pitch,roll,yaw,flex1,flex2,flex3,flex4,flex5,sampling_hz,accel_x,accel_y,accel_z
168204,1755601161149,56.06,-68.59,-59.41,802,767,782,378,892,33.333333333333336,-0.832,-0.505,0.221
168234,1755601161151,56.07,-68.51,-59.4,798,779,775,352,879,33.333333333333336,-0.835,-0.504,0.221
168264,1755601161153,56.07,-68.49,-59.39,795,773,773,362,884,33.333333333333336,-0.835,-0.502,0.221
168294,1755601161155,56.17,-68.45,-59.39,802,774,777,412,891,33.333333333333336,-0.837,-0.504,0.22
168323,1755601161157,56.2,-68.38,-59.36,798,774,781,396,888,34.48275862068966,-0.839,-0.505,0.218
168343,1755601161159,56.2,-68.32,-59.34,798,767,779,383,890,50.0,-0.841,-0.504,0.219
168373,1755601161161,56.22,-68.29,-59.32,802,767,775,394,897,33.333333333333336,-0.837,-0.499,0.221
168393,1755601161163,56.26,-68.28,-59.33,802,777,780,381,884,50.0,-0.833,-0.497,0.222
168423,1755601161165,56.29,-68.3,-59.34,805,777,782,382,886,33.333333333333336,-0.836,-0.501,0.221
168453,1755601161167,56.46,-68.26,-59.34,798,773,769,361,887,33.333333333333336,-0.843,-0.507,0.217
168483,1755601161169,56.43,-68.2,-59.25,794,771,777,348,896,33.333333333333336,-0.847,-0.503,0.216
168513,1755601161171,56.44,-68.09,-59.19,793,777,777,367,888,33.333333333333336,-0.839,-0.495,0.217
168543,1755601161173,56.59,-68.2,-59.15,804,771,772,355,887,33.333333333333336,-0.837,-0.499,0.217
168572,1755601161175,56.72,-68.23,-59.14,799,780,775,379,892,34.48275862068966,-0.841,-0.499,0.214
168592,1755601161177,56.74,-68.22,-59.12,800,771,772,378,889,50.0,-0.845,-0.496,0.213
168652,1755601161182,56.88,-68.28,-59.02,800,772,779,349,896,33.333333333333336,-0.841,-0.494,0.216
168682,1755601161184,56.95,-68.27,-59.02,797,777,776,353,890,33.333333333333336,-0.841,-0.496,0.215
168712,1755601161186,56.89,-68.19,-59.01,805,773,770,382,881,33.333333333333336,-0.839,-0.493,0.215
168772,1755601161224,56.83,-68.09,-59.06,793,768,770,354,892,33.333333333333336,-0.841,-0.495,0.214
168801,1755601161254,56.79,-68.09,-59.06,801,771,770,325,882,34.48275862068966,-0.842,-0.494,0.213
168852,1755601161304,56.79,-68.07,-59.13,798,778,777,314,896,33.333333333333336,-0.841,-0.495,0.212
168881,1755601161333,56.77,-68.06,-59.14,800,771,777,344,884,34.48275862068966,-0.845,-0.499,0.21
168911,1755601161363,56.81,-68.03,-59.11,795,775,779,379,890,33.333333333333336,-0.846,-0.501,0.212
168941,1755601161393,56.88,-68.0,-59.06,802,777,778,396,874,33.333333333333336,-0.843,-0.497,0.213
168971,1755601161423,56.89,-67.99,-59.08,803,779,783,382,884,33.333333333333336,-0.844,-0.498,0.211
169001,1755601161453,56.94,-67.97,-59.06,795,767,776,352,886,33.333333333333336,-0.844,-0.499,0.212
169031,1755601161483,56.98,-67.95,-59.05,802,768,773,344,899,33.333333333333336,-0.844,-0.498,0.212
169060,1755601161512,56.96,-67.89,-59.04,803,776,779,397,887,34.48275862068966,-0.843,-0.496,0.215
169090,1755601161542,57.0,-67.85,-59.05,798,772,780,403,883,33.333333333333336,-0.842,-0.496,0.216
169120,1755601161572,57.01,-67.78,-59.06,797,775,777,373,887,33.333333333333336,-0.843,-0.495,0.215
169150,1755601161602,57.04,-67.72,-59.05,795,773,783,354,893,33.333333333333336,-0.843,-0.495,0.215
169180,1755601161632,57.07,-67.68,-59.06,799,771,775,382,894,33.333333333333336,-0.842,-0.499,0.214
169210,1755601161662,57.07,-67.63,-59.03,803,771,776,408,898,33.333333333333336,-0.844,-0.498,0.212
169239,1755601161692,57.03,-67.56,-59.01,802,771,776,408,885,34.48275862068966,-0.844,-0.494,0.213
169260,1755601161711,57.04,-67.53,-59.02,801,771,779,384,889,47.61904761904762,-0.843,-0.491,0.214
169289,1755601161741,57.07,-67.51,-59.03,798,772,776,399,901,34.48275862068966,-0.844,-0.49,0.214
169319,1755601161771,57.08,-67.47,-59.04,796,776,776,357,887,33.333333333333336,-0.843,-0.494,0.214
169349,1755601161801,57.08,-67.41,-59.02,796,767,774,353,889,33.333333333333336,-0.845,-0.495,0.214
169379,1755601161831,57.07,-67.38,-59.0,799,773,777,386,879,33.333333333333336,-0.843,-0.492,0.217
169408,1755601161861,57.13,-67.34,-59.02,797,774,773,413,891,34.48275862068966,-0.842,-0.492,0.217
169429,1755601161881,57.17,-67.31,-59.03,801,772,776,393,885,47.61904761904762,-0.844,-0.494,0.217
169449,1755601161901,57.19,-67.27,-59.02,798,771,780,343,890,50.0,-0.845,-0.495,0.215
169479,1755601161931,57.2,-67.23,-59.01,800,777,775,383,887,33.333333333333336,-0.844,-0.492,0.215
169508,1755601161961,57.23,-67.2,-59.03,798,768,776,417,885,34.48275862068966,-0.842,-0.49,0.216
169538,1755601161990,57.28,-67.15,-59.04,798,763,775,397,903,33.333333333333336,-0.845,-0.494,0.216
169628,1755601162080,57.42,-67.11,-59.04,801,767,778,404,882,33.333333333333336,-0.846,-0.494,0.213
169658,1755601162110,57.61,-67.19,-59.03,797,771,773,411,888,33.333333333333336,-0.847,-0.496,0.214
169688,1755601162140,57.58,-67.14,-58.99,801,767,776,353,885,33.333333333333336,-0.843,-0.492,0.218
169718,1755601162170,57.57,-67.07,-59.0,800,768,779,338,889,33.333333333333336,-0.839,-0.49,0.219
169748,1755601162200,57.54,-67.04,-59.02,798,777,777,352,887,33.333333333333336,-0.841,-0.49,0.216
169777,1755601162229,57.5,-67.0,-59.03,798,775,771,397,896,34.48275862068966,-0.846,-0.494,0.213
169807,1755601162260,57.45,-66.99,-59.0,802,767,776,395,892,33.333333333333336,-0.844,-0.494,0.21
169857,1755601162309,57.51,-67.04,-59.01,797,772,778,393,890,33.333333333333336,-0.843,-0.488,0.213
169887,1755601162339,57.57,-67.06,-59.03,792,777,775,374,889,33.333333333333336,-0.845,-0.487,0.212
169907,1755601162359,57.58,-67.03,-59.03,807,765,773,388,889,50.0,-0.846,-0.487,0.212
169937,1755601162389,57.61,-67.05,-59.05,805,774,775,372,892,33.333333333333336,-0.844,-0.488,0.212
169967,1755601162419,57.66,-67.11,-59.08,794,772,772,344,887,33.333333333333336,-0.845,-0.488,0.211
169997,1755601162449,57.62,-67.13,-59.09,801,778,779,348,880,33.333333333333336,-0.845,-0.489,0.21
170027,1755601162479,57.58,-67.14,-59.11,794,779,773,413,891,33.333333333333336,-0.846,-0.49,0.21
170047,1755601162499,57.57,-67.13,-59.12,804,767,778,374,883,50.0,-0.848,-0.492,0.21
170076,1755601162529,57.54,-67.13,-59.1,791,775,778,412,885,34.48275862068966,-0.848,-0.492,0.21
170106,1755601162558,57.5,-67.15,-59.09,791,773,777,399,889,33.333333333333336,-0.846,-0.491,0.211
170136,1755601162588,57.51,-67.15,-59.1,802,774,779,356,882,33.333333333333336,-0.844,-0.493,0.21
170166,1755601162619,57.48,-67.13,-59.1,800,768,779,361,884,33.333333333333336,-0.845,-0.493,0.211
170186,1755601162639,57.49,-67.11,-59.1,797,765,774,404,891,50.0,-0.845,-0.492,0.213
170216,1755601162669,57.53,-67.09,-59.1,803,773,781,351,890,33.333333333333336,-0.845,-0.492,0.214
170236,1755601162689,57.53,-67.06,-59.09,797,776,776,393,892,50.0,-0.844,-0.491,0.212
170266,1755601162719,57.51,-67.06,-59.11,800,773,777,351,889,33.333333333333336,-0.844,-0.489,0.209
170296,1755601162748,57.48,-67.12,-59.15,801,761,773,379,884,33.333333333333336,-0.844,-0.49,0.208
170326,1755601162778,57.4,-67.12,-59.15,807,768,782,414,890,33.333333333333336,-0.846,-0.492,0.208
170356,1755601162808,57.31,-67.1,-59.13,794,772,774,397,896,33.333333333333336,-0.846,-0.494,0.211
170376,1755601162829,57.31,-67.07,-59.11,799,771,779,394,884,50.0,-0.845,-0.494,0.216
170396,1755601162848,57.31,-67.04,-59.1,798,764,780,358,891,50.0,-0.84,-0.492,0.219
170426,1755601162878,57.36,-67.02,-59.12,806,770,779,388,892,33.333333333333336,-0.841,-0.492,0.218
170446,1755601162898,57.41,-67.02,-59.14,798,767,780,366,892,50.0,-0.843,-0.493,0.216
170516,1755601162969,57.44,-67.03,-59.15,800,774,776,346,876,50.0,-0.843,-0.492,0.214
170567,1755601163019,57.4,-67.03,-59.16,800,774,775,334,885,33.333333333333336,-0.842,-0.492,0.216
170597,1755601163049,57.39,-67.01,-59.18,801,767,782,373,890,33.333333333333336,-0.842,-0.492,0.218
170627,1755601163079,57.46,-66.99,-59.19,796,770,774,417,892,33.333333333333336,-0.843,-0.492,0.218
170656,1755601163109,57.52,-66.96,-59.2,807,769,779,403,876,34.48275862068966,-0.845,-0.492,0.214
170686,1755601163139,57.5,-66.95,-59.21,798,761,774,353,879,33.333333333333336,-0.844,-0.492,0.213
170716,1755601163169,57.52,-66.97,-59.2,803,777,785,346,885,33.333333333333336,-0.844,-0.493,0.215
170746,1755601163198,57.58,-66.96,-59.21,791,773,776,373,878,33.333333333333336,-0.845,-0.493,0.215
170776,1755601163228,57.56,-66.94,-59.21,803,772,778,360,895,33.333333333333336,-0.844,-0.491,0.215
170796,1755601163248,57.58,-66.93,-59.22,805,768,779,329,889,50.0,-0.844,-0.491,0.216
170826,1755601163278,57.61,-66.93,-59.23,799,768,771,387,886,33.333333333333336,-0.845,-0.493,0.214
170856,1755601163308,57.58,-66.91,-59.22,799,774,778,391,891,33.333333333333336,-0.844,-0.493,0.214
170885,1755601163337,57.6,-66.9,-59.22,800,776,777,353,886,34.48275862068966,-0.844,-0.491,0.215
170915,1755601163367,57.63,-66.91,-59.25,800,769,775,337,887,33.333333333333336,-0.843,-0.491,0.217
170945,1755601163397,57.64,-66.87,-59.26,801,773,778,369,885,33.333333333333336,-0.844,-0.493,0.215
170975,1755601163427,57.62,-66.84,-59.25,798,776,778,407,884,33.333333333333336,-0.845,-0.494,0.214
171024,1755601163477,57.64,-66.84,-59.25,793,773,778,411,894,34.48275862068966,-0.844,-0.491,0.214
171054,1755601163507,57.66,-66.86,-59.27,800,766,772,386,876,33.333333333333336,-0.845,-0.492,0.214
171084,1755601163537,57.63,-66.84,-59.27,797,774,773,335,888,33.333333333333336,-0.845,-0.493,0.213
171104,1755601163556,57.63,-66.83,-59.28,799,777,777,395,894,50.0,-0.843,-0.492,0.214
171134,1755601163586,57.66,-66.82,-59.29,799,777,779,361,886,33.333333333333336,-0.845,-0.492,0.214
171194,1755601163646,57.66,-66.79,-59.28,800,775,773,397,887,33.333333333333336,-0.844,-0.493,0.215
171224,1755601163676,57.69,-66.77,-59.27,796,777,777,412,895,33.333333333333336,-0.845,-0.493,0.215
171253,1755601163706,57.69,-66.75,-59.28,797,772,776,366,887,34.48275862068966,-0.844,-0.492,0.215
171283,1755601163736,57.71,-66.79,-59.3,801,777,778,355,889,33.333333333333336,-0.844,-0.494,0.214
171313,1755601163765,57.76,-66.84,-59.31,796,765,779,368,888,33.333333333333336,-0.845,-0.496,0.211
171343,1755601163795,57.74,-66.81,-59.28,798,774,781,391,881,33.333333333333336,-0.846,-0.494,0.214
171373,1755601163825,57.67,-66.73,-59.24,798,775,777,386,888,33.333333333333336,-0.842,-0.492,0.218
171403,1755601163855,57.72,-66.67,-59.26,793,774,775,349,886,33.333333333333336,-0.841,-0.491,0.219
171432,1755601163885,57.73,-66.63,-59.26,797,776,777,346,886,34.48275862068966,-0.844,-0.491,0.217
171462,1755601163915,57.69,-66.6,-59.26,799,771,776,386,885,33.333333333333336,-0.844,-0.491,0.217
171492,1755601163944,57.69,-66.62,-59.29,802,772,772,412,896,33.333333333333336,-0.843,-0.49,0.216
171522,1755601163974,57.72,-66.66,-59.31,800,770,773,401,889,33.333333333333336,-0.844,-0.491,0.215
171542,1755601163994,57.71,-66.65,-59.32,802,777,771,353,890,50.0,-0.845,-0.492,0.215
171602,1755601164054,57.67,-66.62,-59.34,806,778,775,338,878,33.333333333333336,-0.844,-0.492,0.217
171632,1755601164085,57.65,-66.62,-59.35,797,764,776,344,887,33.333333333333336,-0.844,-0.491,0.216
171652,1755601164104,57.63,-66.63,-59.36,795,774,775,371,886,50.0,-0.843,-0.492,0.216
171682,1755601164134,57.61,-66.61,-59.37,800,774,775,353,887,33.333333333333336,-0.843,-0.492,0.217
171702,1755601164154,57.6,-66.6,-59.39,797,771,781,371,884,50.0,-0.843,-0.492,0.216
171732,1755601164185,57.61,-66.62,-59.41,804,777,778,369,887,33.333333333333336,-0.844,-0.492,0.216
171752,1755601164204,57.61,-66.62,-59.41,794,771,776,385,883,50.0,-0.845,-0.493,0.217
171782,1755601164235,57.65,-66.62,-59.41,793,775,779,345,878,33.333333333333336,-0.844,-0.494,0.217
171802,1755601164254,57.63,-66.6,-59.41,798,768,782,400,880,50.0,-0.843,-0.493,0.219
171832,1755601164285,57.65,-66.57,-59.42,797,771,773,373,895,33.333333333333336,-0.843,-0.494,0.221
171852,1755601164304,57.66,-66.54,-59.43,799,768,771,395,887,50.0,-0.843,-0.493,0.22
171882,1755601164334,57.64,-66.53,-59.43,800,775,776,358,889,33.333333333333336,-0.843,-0.492,0.218
171932,1755601164385,57.64,-66.53,-59.46,800,775,779,351,892,50.0,-0.844,-0.493,0.218
171962,1755601164414,57.65,-66.51,-59.46,796,770,776,356,885,33.333333333333336,-0.843,-0.494,0.219
172022,1755601164475,57.66,-66.45,-59.46,795,771,783,402,889,33.333333333333336,-0.843,-0.493,0.221
172042,1755601164494,57.66,-66.42,-59.46,803,773,777,368,893,50.0,-0.842,-0.492,0.22
172072,1755601164524,57.65,-66.4,-59.47,797,775,776,382,886,33.333333333333336,-0.844,-0.493,0.219
172092,1755601164544,57.66,-66.4,-59.47,796,773,779,370,887,50.0,-0.844,-0.494,0.217
172122,1755601164574,57.63,-66.39,-59.46,798,775,773,377,883,33.333333333333336,-0.844,-0.494,0.218
172142,1755601164594,57.62,-66.38,-59.46,801,776,773,372,891,50.0,-0.843,-0.493,0.218
172172,1755601164624,57.62,-66.39,-59.47,802,771,779,371,878,33.333333333333336,-0.843,-0.493,0.218
172202,1755601164654,57.63,-66.39,-59.47,799,771,778,352,883,33.333333333333336,-0.843,-0.493,0.217
172222,1755601164674,57.61,-66.41,-59.47,800,776,771,388,883,50.0,-0.844,-0.493,0.216
172252,1755601164704,57.53,-66.41,-59.46,802,780,773,307,888,33.333333333333336,-0.844,-0.491,0.218
172281,1755601164733,57.45,-66.37,-59.47,795,774,775,332,879,34.48275862068966,-0.843,-0.491,0.22
172311,1755601164763,57.44,-66.35,-59.47,803,780,778,376,879,33.333333333333336,-0.846,-0.494,0.222
172341,1755601164793,57.45,-66.32,-59.45,802,773,779,395,885,33.333333333333336,-0.844,-0.493,0.222
172371,1755601164823,57.47,-66.3,-59.45,797,771,773,377,881,33.333333333333336,-0.842,-0.49,0.224
172401,1755601164853,57.5,-66.29,-59.48,800,770,780,352,885,33.333333333333336,-0.841,-0.491,0.224
172431,1755601164883,57.54,-66.28,-59.49,800,771,774,362,884,33.333333333333336,-0.844,-0.492,0.224
172461,1755601164913,57.58,-66.28,-59.48,799,770,775,393,882,33.333333333333336,-0.843,-0.491,0.222
172481,1755601164933,57.59,-66.26,-59.49,797,777,776,345,894,50.0,-0.842,-0.491,0.221
172511,1755601164963,57.6,-66.23,-59.49,804,774,776,388,879,33.333333333333336,-0.844,-0.492,0.221
172540,1755601164993,57.59,-66.22,-59.49,803,773,777,401,880,34.48275862068966,-0.844,-0.493,0.221
172600,1755601165052,57.63,-66.24,-59.54,804,777,778,357,883,33.333333333333336,-0.842,-0.49,0.224
172630,1755601165082,57.64,-66.2,-59.53,799,765,777,363,887,33.333333333333336,-0.845,-0.493,0.223
172660,1755601165112,57.63,-66.18,-59.52,800,778,777,397,885,33.333333333333336,-0.843,-0.492,0.223
172690,1755601165142,57.64,-66.16,-59.55,804,770,781,409,897,33.333333333333336,-0.842,-0.49,0.222
172719,1755601165172,57.65,-66.19,-59.57,801,773,779,376,883,34.48275862068966,-0.842,-0.491,0.221
172740,1755601165192,57.67,-66.2,-59.59,792,775,772,415,889,47.61904761904762,-0.844,-0.493,0.221
172769,1755601165222,57.66,-66.2,-59.59,797,770,779,363,889,34.48275862068966,-0.844,-0.495,0.223
172799,1755601165251,57.64,-66.15,-59.58,800,767,780,340,887,33.333333333333336,-0.843,-0.495,0.223
172829,1755601165281,57.68,-66.14,-59.58,802,773,777,373,877,33.333333333333336,-0.842,-0.494,0.222
172859,1755601165312,57.7,-66.15,-59.58,801,772,780,394,889,33.333333333333336,-0.843,-0.492,0.222
172879,1755601165332,57.71,-66.13,-59.59,799,776,778,342,890,50.0,-0.843,-0.49,0.223
172900,1755601165352,57.71,-66.09,-59.59,800,772,778,345,888,47.61904761904762,-0.843,-0.491,0.223
172929,1755601165382,57.72,-66.07,-59.59,802,763,778,367,880,34.48275862068966,-0.843,-0.492,0.222
172959,1755601165412,57.76,-66.08,-59.59,809,772,781,409,881,33.333333333333336,-0.845,-0.493,0.221
172979,1755601165432,57.76,-66.09,-59.59,799,777,777,346,883,50.0,-0.844,-0.492,0.221
173009,1755601165462,57.75,-66.06,-59.59,799,768,774,394,886,33.333333333333336,-0.842,-0.489,0.221
173030,1755601165482,57.74,-66.05,-59.6,793,772,781,352,880,47.61904761904762,-0.842,-0.49,0.222
173050,1755601165502,57.75,-66.04,-59.61,801,778,772,373,879,50.0,-0.843,-0.492,0.222
173070,1755601165522,57.75,-66.04,-59.61,802,773,771,394,881,50.0,-0.843,-0.493,0.221
173090,1755601165542,57.74,-66.04,-59.61,801,774,776,413,890,50.0,-0.843,-0.494,0.22
173120,1755601165572,57.74,-66.04,-59.6,803,773,777,366,888,33.333333333333336,-0.843,-0.493,0.22
173179,1755601165632,57.74,-66.0,-59.61,806,770,773,363,884,33.333333333333336,-0.843,-0.492,0.222
173209,1755601165661,57.72,-65.99,-59.61,798,765,775,399,892,33.333333333333336,-0.842,-0.492,0.222
173239,1755601165692,57.74,-65.97,-59.61,797,777,778,384,891,33.333333333333336,-0.843,-0.492,0.222
173259,1755601165711,57.75,-65.95,-59.61,801,771,780,380,885,50.0,-0.843,-0.491,0.222
173289,1755601165742,57.76,-65.93,-59.61,799,775,771,396,886,33.333333333333336,-0.844,-0.491,0.222
173309,1755601165761,57.75,-65.92,-59.61,800,773,774,386,890,50.0,-0.844,-0.49,0.222
173339,1755601165791,57.74,-65.89,-59.61,798,776,774,389,872,33.333333333333336,-0.844,-0.49,0.222
173369,1755601165821,57.72,-65.91,-59.61,797,776,777,365,885,33.333333333333336,-0.842,-0.49,0.222
173389,1755601165842,57.72,-65.91,-59.61,800,776,776,397,892,50.0,-0.843,-0.49,0.222
173409,1755601165862,57.73,-65.9,-59.62,800,773,777,372,886,50.0,-0.844,-0.49,0.222
173439,1755601165891,57.69,-65.87,-59.62,801,763,775,347,882,33.333333333333336,-0.843,-0.491,0.221
173469,1755601165922,57.68,-65.86,-59.61,803,760,781,348,902,33.333333333333336,-0.843,-0.493,0.222
173499,1755601165951,57.66,-65.85,-59.59,803,774,772,338,891,33.333333333333336,-0.843,-0.493,0.222
173529,1755601165981,57.62,-65.8,-59.59,807,773,775,349,892,33.333333333333336,-0.842,-0.489,0.223
173559,1755601166011,57.63,-65.81,-59.62,803,768,777,401,884,33.333333333333336,-0.843,-0.488,0.223
173589,1755601166041,57.63,-65.83,-59.63,808,777,777,382,900,33.333333333333336,-0.845,-0.49,0.225
173639,1755601166091,57.64,-65.74,-59.61,796,773,773,402,883,47.61904761904762,-0.841,-0.489,0.228
173669,1755601166121,57.66,-65.71,-59.62,801,772,776,374,891,33.333333333333336,-0.842,-0.488,0.226
173699,1755601166151,57.66,-65.73,-59.64,802,776,781,354,889,33.333333333333336,-0.842,-0.488,0.223
173728,1755601166181,57.64,-65.74,-59.64,799,772,783,375,891,34.48275862068966,-0.843,-0.488,0.223
173758,1755601166211,57.66,-65.74,-59.65,802,767,777,408,888,33.333333333333336,-0.843,-0.488,0.225
173788,1755601166241,57.66,-65.7,-59.65,798,771,775,404,881,33.333333333333336,-0.843,-0.489,0.227
173808,1755601166260,57.66,-65.67,-59.66,800,767,781,391,889,50.0,-0.843,-0.49,0.227
173838,1755601166290,57.66,-65.64,-59.66,799,762,781,375,891,33.333333333333336,-0.842,-0.489,0.226
173868,1755601166320,57.68,-65.66,-59.67,796,771,774,340,889,33.333333333333336,-0.841,-0.489,0.226
173898,1755601166350,57.69,-65.66,-59.69,805,773,779,332,889,33.333333333333336,-0.843,-0.491,0.225
173918,1755601166370,57.68,-65.65,-59.68,801,778,778,374,869,50.0,-0.844,-0.492,0.226
173948,1755601166400,57.67,-65.62,-59.68,801,775,782,350,883,33.333333333333336,-0.843,-0.49,0.227
173988,1755601166440,57.68,-65.62,-59.7,799,779,776,428,886,50.0,-0.844,-0.49,0.228
174018,1755601166470,57.68,-65.6,-59.69,804,773,776,365,887,33.333333333333336,-0.845,-0.491,0.226
174047,1755601166500,57.66,-65.58,-59.7,801,774,777,341,872,34.48275862068966,-0.842,-0.489,0.227
174077,1755601166529,57.68,-65.59,-59.71,802,773,779,388,880,33.333333333333336,-0.843,-0.49,0.226
174107,1755601166559,57.69,-65.58,-59.71,802,772,775,410,874,33.333333333333336,-0.844,-0.49,0.227
174137,1755601166590,57.68,-65.54,-59.71,796,774,776,369,887,33.333333333333336,-0.843,-0.489,0.228
174157,1755601166609,57.68,-65.53,-59.71,802,763,782,377,882,50.0,-0.843,-0.489,0.228
174187,1755601166639,57.67,-65.54,-59.73,801,773,774,365,893,33.333333333333336,-0.843,-0.488,0.227
174217,1755601166669,57.69,-65.53,-59.73,798,771,778,332,885,33.333333333333336,-0.844,-0.489,0.227
174247,1755601166699,57.67,-65.51,-59.73,803,776,773,353,885,33.333333333333336,-0.843,-0.489,0.228
174277,1755601166729,57.69,-65.49,-59.75,799,769,778,385,889,33.333333333333336,-0.842,-0.488,0.228
174306,1755601166759,57.7,-65.5,-59.77,801,774,779,413,887,34.48275862068966,-0.842,-0.489,0.227
174336,1755601166789,57.68,-65.47,-59.77,804,778,781,365,889,33.333333333333336,-0.843,-0.489,0.228
174356,1755601166809,57.67,-65.45,-59.76,798,764,778,356,889,50.0,-0.843,-0.489,0.229
174386,1755601166838,57.7,-65.47,-59.78,802,772,774,350,885,33.333333333333336,-0.841,-0.489,0.228
174416,1755601166868,57.71,-65.47,-59.8,800,769,777,344,887,33.333333333333336,-0.841,-0.489,0.227
174446,1755601166898,57.69,-65.47,-59.81,799,773,778,352,891,33.333333333333336,-0.841,-0.488,0.226
174476,1755601166928,57.71,-65.51,-59.84,802,780,778,403,889,33.333333333333336,-0.842,-0.491,0.225
174506,1755601166958,57.7,-65.5,-59.84,799,770,780,414,885,33.333333333333336,-0.844,-0.492,0.225
174536,1755601166988,57.68,-65.47,-59.84,804,772,779,371,888,33.333333333333336,-0.842,-0.491,0.227
174566,1755601167018,57.69,-65.46,-59.85,800,775,776,347,885,33.333333333333336,-0.842,-0.49,0.228
174595,1755601167048,57.68,-65.45,-59.85,795,771,770,355,888,34.48275862068966,-0.842,-0.489,0.226
174625,1755601167077,57.66,-65.45,-59.88,805,776,779,389,878,33.333333333333336,-0.841,-0.49,0.225
174655,1755601167107,57.66,-65.49,-59.89,802,774,777,396,883,33.333333333333336,-0.842,-0.491,0.224
174685,1755601167137,57.67,-65.51,-59.9,799,773,782,362,884,33.333333333333336,-0.842,-0.49,0.224
174715,1755601167167,57.64,-65.5,-59.91,804,776,778,349,880,33.333333333333336,-0.842,-0.489,0.226
174735,1755601167187,57.64,-65.49,-59.92,799,773,775,396,884,50.0,-0.842,-0.489,0.228
174765,1755601167217,57.67,-65.48,-59.94,800,773,776,341,886,33.333333333333336,-0.843,-0.49,0.226
174795,1755601167247,57.67,-65.5,-59.94,798,776,780,357,888,33.333333333333336,-0.843,-0.492,0.226
174824,1755601167277,57.67,-65.49,-59.94,802,772,777,385,880,34.48275862068966,-0.842,-0.49,0.226
174844,1755601167297,57.68,-65.48,-59.95,799,774,777,340,890,50.0,-0.842,-0.49,0.226
174874,1755601167326,57.69,-65.46,-59.96,798,771,774,395,895,33.333333333333336,-0.842,-0.492,0.225
174904,1755601167356,57.7,-65.46,-59.96,797,770,778,386,883,33.333333333333336,-0.842,-0.492,0.225
174964,1755601167416,57.68,-65.44,-59.97,801,776,776,345,884,33.333333333333336,-0.842,-0.491,0.225
174993,1755601167446,57.69,-65.43,-59.97,799,771,778,389,879,34.48275862068966,-0.842,-0.492,0.225
175023,1755601167476,57.69,-65.43,-59.96,804,769,776,404,887,33.333333333333336,-0.842,-0.493,0.225
175053,1755601167506,57.69,-65.41,-59.96,798,775,778,391,887,33.333333333333336,-0.841,-0.492,0.225
175083,1755601167535,57.69,-65.42,-59.96,800,771,779,341,885,33.333333333333336,-0.842,-0.491,0.225
175113,1755601167565,57.67,-65.4,-59.96,804,773,781,353,885,33.333333333333336,-0.84,-0.49,0.225
175143,1755601167595,57.67,-65.38,-59.97,803,771,782,402,893,33.333333333333336,-0.841,-0.492,0.226
175173,1755601167625,57.7,-65.38,-59.96,796,777,780,416,884,33.333333333333336,-0.842,-0.493,0.226
175203,1755601167655,57.69,-65.37,-59.95,796,774,781,376,887,33.333333333333336,-0.842,-0.491,0.227
175262,1755601167715,57.72,-65.35,-59.95,804,766,780,349,889,34.48275862068966,-0.843,-0.491,0.226
175292,1755601167745,57.71,-65.35,-59.95,801,764,779,388,885,33.333333333333336,-0.841,-0.491,0.226
175322,1755601167775,57.69,-65.33,-59.95,800,769,773,400,888,33.333333333333336,-0.841,-0.49,0.226
175352,1755601167804,57.71,-65.34,-59.96,795,776,775,374,887,33.333333333333336,-0.842,-0.489,0.226
175382,1755601167834,57.71,-65.34,-59.96,798,774,781,340,884,33.333333333333336,-0.842,-0.49,0.226
175412,1755601167864,57.69,-65.36,-59.98,806,777,774,361,883,33.333333333333336,-0.841,-0.49,0.226
175442,1755601167894,57.68,-65.35,-59.99,799,769,781,384,876,33.333333333333336,-0.842,-0.489,0.226
175462,1755601167914,57.66,-65.35,-60.0,806,784,778,357,880,50.0,-0.843,-0.488,0.227
175492,1755601167944,57.64,-65.34,-60.03,799,769,772,417,880,33.333333333333336,-0.842,-0.488,0.229
175522,1755601167974,57.65,-65.34,-60.05,802,770,773,408,886,33.333333333333336,-0.843,-0.49,0.228
175542,1755601167994,57.66,-65.32,-60.05,801,776,781,398,883,50.0,-0.844,-0.491,0.228
175562,1755601168014,57.68,-65.31,-60.05,802,767,775,348,885,50.0,-0.843,-0.492,0.228
175592,1755601168044,57.67,-65.29,-60.06,796,769,775,390,881,33.333333333333336,-0.842,-0.492,0.228
175622,1755601168075,57.69,-65.31,-60.07,802,776,778,419,885,33.333333333333336,-0.843,-0.491,0.227
175642,1755601168095,57.7,-65.32,-60.08,799,774,772,376,888,50.0,-0.843,-0.49,0.227
175662,1755601168115,57.69,-65.31,-60.09,804,775,771,353,886,50.0,-0.842,-0.489,0.227
175683,1755601168135,57.69,-65.3,-60.1,797,768,773,358,889,47.61904761904762,-0.842,-0.49,0.228
175713,1755601168165,57.68,-65.3,-60.11,800,768,778,358,873,33.333333333333336,-0.842,-0.491,0.227
175742,1755601168195,57.67,-65.3,-60.1,798,771,777,394,880,34.48275862068966,-0.842,-0.492,0.227
175763,1755601168215,57.67,-65.29,-60.1,802,772,775,334,888,47.61904761904762,-0.842,-0.492,0.226
175793,1755601168245,57.66,-65.29,-60.1,799,777,780,400,887,33.333333333333336,-0.841,-0.491,0.228
175813,1755601168265,57.66,-65.28,-60.1,800,777,777,348,883,50.0,-0.841,-0.49,0.228
175842,1755601168295,57.64,-65.26,-60.11,806,776,782,404,891,34.48275862068966,-0.841,-0.491,0.228
175863,1755601168315,57.64,-65.25,-60.1,805,768,778,342,890,47.61904761904762,-0.843,-0.491,0.229
175893,1755601168345,57.67,-65.26,-60.1,797,770,779,376,885,33.333333333333336,-0.842,-0.491,0.228
175923,1755601168375,57.65,-65.25,-60.11,800,769,772,391,887,33.333333333333336,-0.841,-0.49,0.227
175952,1755601168405,57.65,-65.23,-60.12,798,774,780,372,887,34.48275862068966,-0.842,-0.491,0.226
175973,1755601168425,57.67,-65.2,-60.13,799,774,781,406,878,47.61904761904762,-0.841,-0.491,0.226
176002,1755601168455,57.69,-65.19,-60.14,800,779,775,334,880,34.48275862068966,-0.841,-0.49,0.227
176032,1755601168484,57.68,-65.18,-60.15,800,775,770,334,881,33.333333333333336,-0.842,-0.49,0.228
176062,1755601168514,57.66,-65.17,-60.15,795,770,779,351,886,33.333333333333336,-0.841,-0.49,0.226
176092,1755601168544,57.64,-65.2,-60.16,802,775,778,387,884,33.333333333333336,-0.842,-0.49,0.227
176142,1755601168594,57.64,-65.16,-60.15,799,770,778,364,887,50.0,-0.841,-0.489,0.234
176172,1755601168624,57.64,-65.09,-60.16,808,780,778,384,882,33.333333333333336,-0.84,-0.49,0.232
176192,1755601168644,57.63,-65.06,-59.86,804,765,777,366,884,50.0,-0.842,-0.491,0.23
176222,1755601168674,57.63,-65.04,-59.86,797,778,778,379,880,33.333333333333336,-0.842,-0.49,0.228
176251,1755601168704,57.61,-65.03,-59.88,797,774,773,362,876,34.48275862068966,-0.842,-0.491,0.227
176272,1755601168724,57.6,-65.03,-59.88,805,764,773,415,887,47.61904761904762,-0.843,-0.493,0.227
176302,1755601168754,57.61,-65.04,-59.87,804,764,779,385,881,33.333333333333336,-0.842,-0.493,0.228
176332,1755601168784,57.59,-65.02,-59.87,802,772,776,360,891,33.333333333333336,-0.84,-0.49,0.229
176361,1755601168814,57.62,-65.02,-59.89,795,775,778,377,885,34.48275862068966,-0.844,-0.488,0.229
176421,1755601168874,57.64,-65.03,-59.89,798,772,781,395,890,33.333333333333336,-0.843,-0.491,0.229
176471,1755601168923,57.62,-65.04,-59.9,802,767,781,389,878,33.333333333333336,-0.84,-0.49,0.231
