timestamp_ms,recv_timestamp_ms,pitch,roll,yaw,flex1,flex2,flex3,flex4,flex5,sampling_hz,accel_x,accel_y,accel_z
104912,1755608009516,15.44,-43.61,-16.73,785,774,781,394,836,33.333333333333336,-0.267,-0.664,0.697
104941,1755608009518,15.45,-43.59,-16.74,786,769,780,343,844,34.48275862068966,-0.267,-0.665,0.697
104971,1755608009520,15.44,-43.62,-16.29,781,780,783,345,842,33.333333333333336,-0.268,-0.666,0.694
105000,1755608009522,15.47,-43.63,-16.27,784,768,777,399,842,34.48275862068966,-0.27,-0.666,0.691
105030,1755608009524,15.45,-43.68,-16.28,786,771,780,410,839,33.333333333333336,-0.269,-0.666,0.691
105059,1755608009526,15.45,-43.72,-16.28,777,774,782,365,846,34.48275862068966,-0.268,-0.666,0.694
105089,1755608009528,15.47,-43.69,-16.27,786,773,778,302,842,33.333333333333336,-0.268,-0.669,0.696
105119,1755608009530,15.49,-43.68,-16.25,785,774,778,349,837,33.333333333333336,-0.266,-0.669,0.697
105148,1755608009532,15.53,-43.69,-16.23,777,770,778,404,842,34.48275862068966,-0.266,-0.668,0.698
105178,1755608009534,15.57,-43.65,-16.22,785,776,787,392,844,33.333333333333336,-0.266,-0.666,0.697
105207,1755608009536,15.54,-43.62,-16.23,784,772,777,335,841,34.48275862068966,-0.267,-0.665,0.695
105237,1755608009538,15.54,-43.66,-16.22,782,777,778,349,845,33.333333333333336,-0.27,-0.669,0.694
105266,1755608009541,15.54,-43.69,-16.17,778,775,779,387,843,34.48275862068966,-0.271,-0.67,0.695
105296,1755608009543,15.53,-43.65,-16.12,780,771,783,409,841,33.333333333333336,-0.27,-0.665,0.696
105326,1755608009545,15.56,-43.61,-16.11,784,774,786,337,848,33.333333333333336,-0.267,-0.66,0.696
105356,1755608009547,15.55,-43.65,-16.13,781,774,778,318,839,33.333333333333336,-0.267,-0.662,0.695
105385,1755608009549,15.57,-43.71,-16.13,781,776,784,353,838,34.48275862068966,-0.27,-0.665,0.696
105405,1755608009551,15.6,-43.7,-16.12,784,769,785,355,842,50.0,-0.272,-0.667,0.695
105435,1755608009553,15.56,-43.71,-16.12,784,774,785,378,844,33.333333333333336,-0.272,-0.665,0.692
105465,1755608009555,15.55,-43.8,-16.12,783,772,782,420,834,33.333333333333336,-0.272,-0.665,0.69
105494,1755608009557,15.57,-43.84,-16.11,786,771,780,400,841,34.48275862068966,-0.272,-0.668,0.694
105524,1755608009559,15.55,-43.73,-16.11,778,780,782,356,836,33.333333333333336,-0.271,-0.669,0.699
105553,1755608009561,15.55,-43.68,-16.12,782,774,781,356,841,34.48275862068966,-0.267,-0.666,0.696
105583,1755608009563,15.63,-43.73,-16.12,785,781,784,404,842,33.333333333333336,-0.267,-0.666,0.694
105613,1755608009565,15.61,-43.71,-16.14,783,768,784,418,839,33.333333333333336,-0.269,-0.667,0.694
105642,1755608009567,15.54,-43.68,-16.17,780,776,786,365,840,34.48275862068966,-0.271,-0.669,0.694
105672,1755608009569,15.56,-43.73,-16.15,785,776,784,346,835,33.333333333333336,-0.272,-0.669,0.694
105701,1755608009571,15.63,-43.76,-16.09,779,775,777,379,841,34.48275862068966,-0.272,-0.668,0.695
105731,1755608009574,15.61,-43.77,-16.08,784,774,783,431,844,33.333333333333336,-0.271,-0.668,0.697
105761,1755608009576,15.58,-43.74,-16.06,786,778,785,412,845,33.333333333333336,-0.27,-0.668,0.697
105790,1755608009578,15.63,-43.72,-16.01,784,776,779,345,836,34.48275862068966,-0.268,-0.668,0.696
105820,1755608009580,15.62,-43.71,-16.0,785,771,778,352,850,33.333333333333336,-0.269,-0.666,0.696
105849,1755608009582,15.61,-43.69,-16.0,784,783,780,405,843,34.48275862068966,-0.269,-0.664,0.696
105879,1755608009584,15.65,-43.71,-16.0,787,776,782,415,839,33.333333333333336,-0.271,-0.662,0.694
105908,1755608009587,15.66,-43.76,-16.0,783,776,783,370,838,34.48275862068966,-0.274,-0.664,0.692
105938,1755608009589,15.68,-43.74,-15.99,780,777,783,354,841,33.333333333333336,-0.276,-0.665,0.694
105968,1755608009592,15.67,-43.78,-15.98,784,780,781,351,840,33.333333333333336,-0.272,-0.665,0.696
105998,1755608009594,15.69,-43.78,-15.98,783,779,780,401,840,33.333333333333336,-0.271,-0.667,0.697
106018,1755608009596,15.67,-43.78,-15.99,785,770,783,356,842,50.0,-0.27,-0.669,0.697
106047,1755608009598,15.68,-43.7,-15.98,782,780,777,384,846,34.48275862068966,-0.273,-0.669,0.696
106067,1755608009600,15.69,-43.66,-15.96,785,782,782,357,840,50.0,-0.275,-0.667,0.695
106097,1755608009602,15.7,-43.7,-15.96,789,780,784,376,836,33.333333333333336,-0.276,-0.665,0.693
106126,1755608009603,15.73,-43.74,-15.93,782,769,778,371,842,34.48275862068966,-0.275,-0.666,0.697
106156,1755608009605,15.81,-43.71,-15.88,783,774,781,326,839,33.333333333333336,-0.271,-0.666,0.699
106185,1755608009608,15.9,-43.71,-15.83,784,775,782,352,841,34.48275862068966,-0.27,-0.664,0.701
106215,1755608009610,16.05,-43.79,-15.8,782,779,778,417,842,33.333333333333336,-0.273,-0.66,0.698
106244,1755608009612,16.18,-43.84,-15.77,777,771,775,393,837,34.48275862068966,-0.278,-0.659,0.696
106274,1755608009614,16.22,-43.79,-15.78,784,773,784,357,845,33.333333333333336,-0.282,-0.661,0.693
106304,1755608009616,16.18,-43.83,-15.79,784,768,784,359,840,33.333333333333336,-0.283,-0.663,0.689
106333,1755608009618,16.21,-43.94,-15.77,778,774,783,407,842,34.48275862068966,-0.284,-0.666,0.691
106362,1755608009620,16.25,-43.91,-15.77,788,774,781,415,838,34.48275862068966,-0.28,-0.669,0.695
106392,1755608009622,16.23,-43.85,-15.79,783,777,777,376,843,33.333333333333336,-0.276,-0.667,0.696
106422,1755608009624,16.27,-43.85,-15.81,785,771,782,340,845,33.333333333333336,-0.276,-0.664,0.694
106451,1755608009626,16.28,-43.84,-15.87,783,771,783,383,845,34.48275862068966,-0.279,-0.665,0.692
106481,1755608009628,16.19,-43.81,-15.93,784,771,780,420,838,33.333333333333336,-0.283,-0.669,0.691
106510,1755608009630,16.19,-43.81,-15.91,781,779,778,386,845,34.48275862068966,-0.284,-0.669,0.69
106540,1755608009632,16.3,-43.86,-15.87,779,779,786,353,839,33.333333333333336,-0.282,-0.668,0.691
106569,1755608009635,16.31,-43.89,-15.87,785,767,782,349,844,34.48275862068966,-0.281,-0.667,0.693
106599,1755608009637,16.32,-43.86,-15.87,784,768,784,405,841,33.333333333333336,-0.28,-0.667,0.695
106628,1755608009639,16.38,-43.79,-15.87,784,779,785,391,843,34.48275862068966,-0.279,-0.665,0.694
106658,1755608009642,16.39,-43.81,-15.9,784,774,779,359,842,33.333333333333336,-0.28,-0.664,0.691
106688,1755608009643,16.41,-43.81,-15.94,781,774,786,356,843,33.333333333333336,-0.283,-0.664,0.689
106717,1755608009646,16.4,-43.78,-15.97,782,777,783,395,843,34.48275862068966,-0.284,-0.666,0.687
106747,1755608009648,16.38,-43.84,-15.96,786,772,781,410,843,33.333333333333336,-0.285,-0.668,0.687
106806,1755608009652,16.38,-43.82,-15.95,785,776,784,349,842,34.48275862068966,-0.283,-0.67,0.693
106836,1755608009654,16.35,-43.78,-15.97,783,773,780,352,844,33.333333333333336,-0.28,-0.669,0.693
106865,1755608009656,16.4,-43.8,-15.94,783,779,786,417,841,34.48275862068966,-0.28,-0.669,0.692
106895,1755608009658,16.46,-43.84,-15.93,784,774,780,406,846,33.333333333333336,-0.281,-0.668,0.694
106924,1755608009660,16.46,-43.77,-15.95,781,774,782,370,838,34.48275862068966,-0.283,-0.667,0.695
106954,1755608009662,16.43,-43.7,-15.94,780,767,784,357,843,33.333333333333336,-0.284,-0.668,0.691
106984,1755608009664,16.45,-43.77,-15.88,784,770,782,395,841,33.333333333333336,-0.285,-0.669,0.687
107013,1755608009666,16.45,-43.82,-15.84,783,777,783,369,840,34.48275862068966,-0.289,-0.665,0.689
107072,1755608009670,16.28,-43.76,-15.83,780,774,782,336,842,34.48275862068966,-0.284,-0.665,0.687
107102,1755608009672,16.25,-43.88,-15.78,785,768,782,369,842,33.333333333333336,-0.282,-0.669,0.693
107132,1755608009674,16.25,-43.86,-15.72,779,774,784,425,839,33.333333333333336,-0.279,-0.669,0.7
107161,1755608009676,16.29,-43.75,-15.68,783,779,780,407,840,34.48275862068966,-0.277,-0.664,0.7
107191,1755608009678,16.32,-43.7,-15.65,786,773,781,367,839,33.333333333333336,-0.277,-0.661,0.695
107221,1755608009680,16.33,-43.73,-15.65,778,777,785,345,839,33.333333333333336,-0.279,-0.662,0.693
107250,1755608009682,16.3,-43.75,-15.67,787,776,786,398,841,34.48275862068966,-0.28,-0.663,0.695
107280,1755608009685,16.3,-43.7,-15.67,784,773,784,421,843,33.333333333333336,-0.281,-0.662,0.696
107309,1755608009687,16.35,-43.69,-15.67,781,778,781,385,847,34.48275862068966,-0.281,-0.662,0.693
107339,1755608009689,16.35,-43.73,-15.67,786,768,777,338,844,33.333333333333336,-0.28,-0.664,0.692
107368,1755608009692,16.36,-43.75,-15.65,783,779,784,361,836,34.48275862068966,-0.28,-0.665,0.694
107398,1755608009694,16.39,-43.72,-15.64,777,772,780,388,843,33.333333333333336,-0.28,-0.664,0.697
107427,1755608009696,16.4,-43.64,-15.63,783,778,782,398,843,34.48275862068966,-0.28,-0.662,0.694
107457,1755608009698,16.42,-43.7,-15.63,780,768,781,351,843,33.333333333333336,-0.281,-0.665,0.689
107486,1755608009701,15.99,-43.76,-15.61,785,767,784,347,836,34.48275862068966,-0.286,-0.666,0.688
107516,1755608009702,15.97,-43.69,-15.6,785,777,785,386,840,33.333333333333336,-0.285,-0.662,0.688
107546,1755608009704,15.98,-43.72,-15.59,785,782,781,408,843,33.333333333333336,-0.285,-0.662,0.687
107575,1755608009706,16.03,-43.84,-15.57,784,774,777,370,840,34.48275862068966,-0.283,-0.664,0.687
107604,1755608009708,16.04,-43.92,-15.56,784,779,782,340,844,34.48275862068966,-0.284,-0.666,0.69
107634,1755608009737,16.0,-43.88,-15.53,785,767,780,397,842,33.333333333333336,-0.284,-0.666,0.691
107664,1755608009767,16.0,-43.89,-15.5,783,775,775,412,843,33.333333333333336,-0.285,-0.666,0.689
107693,1755608009796,15.96,-43.99,-15.5,780,777,781,386,841,34.48275862068966,-0.282,-0.666,0.688
107723,1755608009826,15.92,-44.0,-15.48,785,769,782,347,841,33.333333333333336,-0.282,-0.664,0.69
107752,1755608009855,15.94,-43.94,-15.45,785,772,782,321,838,34.48275862068966,-0.28,-0.662,0.692
107782,1755608009885,15.87,-43.93,-15.48,778,768,784,386,846,33.333333333333336,-0.279,-0.664,0.692
107841,1755608009944,15.88,-43.99,-15.43,784,777,782,349,837,33.333333333333336,-0.28,-0.665,0.69
107900,1755608010003,15.82,-43.97,-15.49,786,773,782,381,848,33.333333333333336,-0.281,-0.662,0.689
107930,1755608010033,15.84,-44.03,-15.48,782,773,785,407,845,33.333333333333336,-0.282,-0.663,0.687
107959,1755608010063,15.85,-44.1,-15.49,778,774,784,386,847,34.48275862068966,-0.282,-0.666,0.688
107989,1755608010092,15.75,-44.13,-15.55,783,771,780,347,844,33.333333333333336,-0.282,-0.668,0.688
108019,1755608010122,15.73,-44.19,-15.57,782,768,779,373,849,33.333333333333336,-0.281,-0.668,0.687
108048,1755608010151,15.82,-44.22,-15.52,780,775,782,405,847,34.48275862068966,-0.282,-0.67,0.686
108078,1755608010181,15.79,-44.24,-15.49,778,774,777,404,844,33.333333333333336,-0.284,-0.671,0.687
108107,1755608010211,15.75,-44.21,-15.49,784,775,782,366,845,34.48275862068966,-0.282,-0.669,0.687
108137,1755608010240,15.82,-44.2,-15.47,785,768,779,343,841,33.333333333333336,-0.281,-0.668,0.687
108167,1755608010270,15.8,-44.25,-15.48,779,777,785,379,843,33.333333333333336,-0.28,-0.669,0.687
108196,1755608010299,15.77,-44.31,-15.49,785,775,785,395,836,34.48275862068966,-0.28,-0.67,0.688
108226,1755608010329,15.75,-44.32,-15.49,782,773,783,374,834,33.333333333333336,-0.279,-0.67,0.689
108255,1755608010358,15.78,-44.27,-15.46,779,778,784,333,843,34.48275862068966,-0.28,-0.671,0.69
108285,1755608010388,15.8,-44.27,-15.46,780,776,781,323,841,33.333333333333336,-0.279,-0.67,0.686
108314,1755608010418,15.88,-44.27,-15.43,780,777,781,400,845,34.48275862068966,-0.28,-0.672,0.684
108344,1755608010447,15.87,-44.28,-15.43,777,775,777,376,841,33.333333333333336,-0.28,-0.672,0.684
108374,1755608010477,15.85,-44.28,-15.42,779,775,780,339,839,33.333333333333336,-0.28,-0.67,0.687
108403,1755608010506,15.92,-44.25,-15.37,784,775,781,336,844,34.48275862068966,-0.28,-0.67,0.688
108433,1755608010536,15.96,-44.23,-15.36,785,782,781,399,836,33.333333333333336,-0.279,-0.671,0.688
108462,1755608010565,15.92,-44.2,-15.37,786,775,783,385,840,34.48275862068966,-0.278,-0.669,0.686
108492,1755608010595,15.9,-44.28,-15.39,784,774,783,343,841,33.333333333333336,-0.277,-0.67,0.684
108521,1755608010624,15.93,-44.3,-15.37,783,776,784,297,840,34.48275862068966,-0.28,-0.671,0.687
108551,1755608010654,15.99,-44.19,-15.33,784,778,786,369,844,33.333333333333336,-0.281,-0.67,0.689
108580,1755608010683,15.99,-44.16,-15.33,785,775,780,403,841,34.48275862068966,-0.28,-0.669,0.687
108610,1755608010713,15.95,-44.25,-15.35,785,774,782,386,842,33.333333333333336,-0.279,-0.669,0.685
108640,1755608010743,15.99,-44.23,-15.34,783,768,778,358,841,33.333333333333336,-0.28,-0.667,0.686
108669,1755608010773,16.0,-44.18,-15.36,785,775,779,350,840,34.48275862068966,-0.279,-0.667,0.687
108689,1755608010792,15.96,-44.17,-15.38,782,779,779,351,839,50.0,-0.279,-0.668,0.688
108718,1755608010822,15.99,-44.17,-15.38,784,771,780,350,844,34.48275862068966,-0.28,-0.668,0.687
108748,1755608010851,16.08,-44.14,-15.36,784,769,778,392,845,33.333333333333336,-0.28,-0.669,0.687
108778,1755608010881,16.04,-44.12,-15.4,780,774,774,392,844,33.333333333333336,-0.279,-0.67,0.686
108807,1755608010910,16.06,-44.14,-15.39,777,769,777,341,839,34.48275862068966,-0.28,-0.671,0.687
108837,1755608010940,16.08,-44.16,-15.37,784,774,782,345,837,33.333333333333336,-0.281,-0.672,0.686
108866,1755608010969,16.08,-44.2,-15.34,783,777,782,392,841,34.48275862068966,-0.281,-0.671,0.686
108896,1755608010999,16.12,-44.24,-15.3,784,781,782,405,842,33.333333333333336,-0.281,-0.67,0.687
108925,1755608011028,16.18,-44.25,-15.26,783,777,782,358,841,34.48275862068966,-0.279,-0.668,0.688
108955,1755608011058,16.18,-44.28,-15.27,783,776,782,331,837,33.333333333333336,-0.279,-0.667,0.687
108984,1755608011088,16.17,-44.32,-15.28,779,779,779,363,837,34.48275862068966,-0.279,-0.668,0.686
109014,1755608011117,16.18,-44.36,-15.28,782,774,782,408,842,33.333333333333336,-0.281,-0.67,0.685
109044,1755608011147,16.24,-44.34,-15.26,779,773,778,395,837,33.333333333333336,-0.283,-0.671,0.685
109073,1755608011176,16.24,-44.4,-15.27,783,777,782,355,844,34.48275862068966,-0.283,-0.673,0.684
109103,1755608011206,16.26,-44.47,-15.23,785,770,781,349,836,33.333333333333336,-0.283,-0.674,0.685
109132,1755608011235,16.36,-44.46,-15.16,780,776,778,410,838,34.48275862068966,-0.284,-0.673,0.686
109162,1755608011265,16.39,-44.41,-15.14,783,770,784,415,841,33.333333333333336,-0.283,-0.669,0.683
109191,1755608011294,16.36,-44.43,-15.19,783,773,782,374,843,34.48275862068966,-0.282,-0.671,0.68
109221,1755608011324,16.37,-44.48,-15.2,778,774,782,344,844,33.333333333333336,-0.285,-0.675,0.679
109250,1755608011354,16.39,-44.47,-15.15,780,775,780,384,841,34.48275862068966,-0.288,-0.677,0.681
109280,1755608011383,16.42,-44.48,-15.08,782,770,781,402,844,33.333333333333336,-0.289,-0.676,0.682
109309,1755608011412,16.45,-44.48,-15.03,785,775,785,385,843,34.48275862068966,-0.287,-0.673,0.682
109369,1755608011472,16.47,-44.48,-14.99,782,776,780,321,845,33.333333333333336,-0.286,-0.672,0.681
109398,1755608011501,16.49,-44.49,-14.96,778,779,781,404,838,34.48275862068966,-0.287,-0.669,0.683
109428,1755608011531,16.54,-44.46,-14.94,784,777,778,406,845,33.333333333333336,-0.287,-0.666,0.683
109457,1755608011561,16.54,-44.43,-14.95,786,780,782,354,847,34.48275862068966,-0.285,-0.664,0.682
109487,1755608011590,16.52,-44.47,-15.0,784,778,776,342,843,33.333333333333336,-0.284,-0.665,0.679
109516,1755608011620,16.51,-44.55,-15.04,785,773,784,399,843,34.48275862068966,-0.285,-0.669,0.679
109546,1755608011649,16.51,-44.55,-15.04,781,780,782,406,849,33.333333333333336,-0.287,-0.671,0.681
109605,1755608011708,16.52,-44.55,-15.09,781,774,782,358,843,34.48275862068966,-0.285,-0.672,0.681
109635,1755608011738,16.59,-44.56,-15.09,778,777,778,390,842,33.333333333333336,-0.287,-0.675,0.681
109664,1755608011767,16.62,-44.53,-15.09,782,777,782,416,844,34.48275862068966,-0.289,-0.675,0.68
109694,1755608011797,16.58,-44.54,-15.11,781,775,781,395,839,33.333333333333336,-0.29,-0.672,0.68
109723,1755608011826,16.61,-44.53,-15.11,783,774,783,353,847,34.48275862068966,-0.289,-0.67,0.68
109753,1755608011856,16.63,-44.53,-15.11,785,774,782,369,843,33.333333333333336,-0.288,-0.67,0.679
109782,1755608011885,16.63,-44.57,-15.13,779,773,783,418,837,34.48275862068966,-0.287,-0.672,0.679
109812,1755608011915,16.67,-44.55,-15.11,779,783,776,421,841,33.333333333333336,-0.288,-0.675,0.68
109841,1755608011944,16.65,-44.55,-15.09,779,773,784,348,840,34.48275862068966,-0.29,-0.677,0.681
109871,1755608011974,16.66,-44.53,-15.04,785,777,781,343,847,33.333333333333336,-0.291,-0.676,0.681
109900,1755608012003,16.73,-44.49,-14.99,781,773,784,384,842,34.48275862068966,-0.29,-0.674,0.682
109930,1755608012033,16.71,-44.47,-14.97,787,773,783,396,842,33.333333333333336,-0.287,-0.672,0.681
109959,1755608012062,16.73,-44.49,-14.97,780,772,779,363,841,34.48275862068966,-0.287,-0.671,0.681
109989,1755608012092,16.77,-44.49,-14.95,784,780,781,324,839,33.333333333333336,-0.289,-0.671,0.679
110018,1755608012122,16.76,-44.51,-14.96,779,773,784,359,842,34.48275862068966,-0.291,-0.671,0.678
110048,1755608012152,16.78,-44.51,-14.94,783,774,781,404,839,33.333333333333336,-0.292,-0.672,0.677
110078,1755608012181,16.78,-44.57,-14.93,786,774,781,408,843,33.333333333333336,-0.292,-0.671,0.678
110108,1755608012211,16.76,-44.6,-14.91,785,773,783,358,840,33.333333333333336,-0.29,-0.671,0.68
110137,1755608012240,16.78,-44.61,-14.93,782,780,777,309,846,34.48275862068966,-0.288,-0.67,0.681
110167,1755608012270,16.77,-44.62,-14.96,782,771,782,374,842,33.333333333333336,-0.288,-0.671,0.682
110196,1755608012299,16.8,-44.58,-14.95,785,778,781,413,837,34.48275862068966,-0.29,-0.673,0.682
110226,1755608012329,16.82,-44.54,-14.94,785,775,783,363,841,33.333333333333336,-0.291,-0.673,0.681
110255,1755608012358,16.79,-44.57,-14.94,784,776,783,326,850,34.48275862068966,-0.291,-0.672,0.68
110285,1755608012388,16.85,-44.56,-14.92,787,777,783,371,844,33.333333333333336,-0.291,-0.672,0.68
110314,1755608012417,16.87,-44.54,-14.91,784,776,782,391,844,34.48275862068966,-0.29,-0.671,0.679
110344,1755608012447,16.82,-44.56,-14.92,782,771,785,366,843,33.333333333333336,-0.289,-0.671,0.679
110373,1755608012477,16.82,-44.58,-14.93,783,772,782,335,845,34.48275862068966,-0.29,-0.671,0.681
110403,1755608012506,16.86,-44.53,-14.93,784,775,780,359,842,33.333333333333336,-0.29,-0.672,0.683
110432,1755608012536,16.85,-44.49,-14.93,784,774,780,393,844,34.48275862068966,-0.291,-0.673,0.682
110462,1755608012565,16.85,-44.5,-14.92,784,774,783,396,845,33.333333333333336,-0.291,-0.673,0.68
110492,1755608012595,16.88,-44.48,-14.9,781,775,785,365,839,33.333333333333336,-0.292,-0.672,0.679
110521,1755608012624,16.85,-44.49,-14.91,784,779,783,331,841,34.48275862068966,-0.293,-0.672,0.679
110551,1755608012654,16.82,-44.51,-14.9,784,772,782,370,841,33.333333333333336,-0.294,-0.673,0.681
110571,1755608012674,16.84,-44.5,-14.87,784,776,784,347,840,50.0,-0.293,-0.672,0.683
110601,1755608012704,16.8,-44.49,-14.86,780,781,778,393,842,33.333333333333336,-0.292,-0.672,0.684
110630,1755608012734,16.74,-44.48,-14.88,785,775,788,417,845,34.48275862068966,-0.288,-0.669,0.682
110660,1755608012764,16.77,-44.49,-14.88,784,771,783,396,838,33.333333333333336,-0.289,-0.668,0.682
110690,1755608012793,16.76,-44.49,-14.89,781,778,776,350,837,33.333333333333336,-0.289,-0.667,0.682
110720,1755608012823,16.76,-44.45,-14.9,785,774,782,367,840,33.333333333333336,-0.289,-0.667,0.682
110750,1755608012853,16.76,-44.45,-14.92,785,772,781,406,844,33.333333333333336,-0.289,-0.668,0.68
110770,1755608012873,16.75,-44.48,-14.93,778,775,783,346,844,50.0,-0.289,-0.669,0.68
110799,1755608012902,16.71,-44.55,-14.94,783,772,781,386,842,34.48275862068966,-0.291,-0.672,0.68
110829,1755608012932,16.73,-44.55,-14.93,784,777,786,385,837,33.333333333333336,-0.291,-0.672,0.682
110858,1755608012961,16.75,-44.53,-14.9,780,776,781,353,844,34.48275862068966,-0.292,-0.672,0.681
110887,1755608012990,16.77,-44.55,-14.89,783,774,775,335,842,34.48275862068966,-0.291,-0.671,0.681
110917,1755608013020,16.76,-44.57,-14.89,786,776,781,379,839,33.333333333333336,-0.29,-0.672,0.68
110946,1755608013049,16.77,-44.53,-14.89,779,773,776,399,844,34.48275862068966,-0.29,-0.671,0.682
110976,1755608013079,16.79,-44.48,-14.88,781,767,778,364,847,33.333333333333336,-0.29,-0.671,0.683
111005,1755608013109,16.76,-44.49,-14.88,782,768,778,355,843,34.48275862068966,-0.29,-0.672,0.683
111035,1755608013138,16.69,-44.52,-14.89,778,776,778,385,842,33.333333333333336,-0.291,-0.672,0.682
111065,1755608013168,16.69,-44.51,-14.86,784,775,782,420,847,33.333333333333336,-0.291,-0.671,0.682
111094,1755608013198,16.71,-44.49,-14.83,782,777,785,390,843,34.48275862068966,-0.29,-0.67,0.681
111124,1755608013227,16.66,-44.54,-14.82,785,773,782,353,843,33.333333333333336,-0.289,-0.671,0.681
111153,1755608013256,16.69,-44.56,-14.78,783,775,784,360,840,34.48275862068966,-0.288,-0.67,0.683
111183,1755608013286,16.74,-44.52,-14.75,788,775,780,402,838,33.333333333333336,-0.287,-0.669,0.684
111213,1755608013316,16.7,-44.51,-14.76,780,769,780,394,839,33.333333333333336,-0.286,-0.669,0.684
111242,1755608013345,16.72,-44.51,-14.75,785,776,785,346,841,34.48275862068966,-0.287,-0.669,0.684
111272,1755608013375,16.75,-44.52,-14.75,784,778,778,329,842,33.333333333333336,-0.288,-0.67,0.684
111331,1755608013434,16.75,-44.54,-14.77,783,774,780,405,838,33.333333333333336,-0.29,-0.67,0.684
111360,1755608013464,16.81,-44.48,-14.76,781,774,776,389,842,34.48275862068966,-0.288,-0.669,0.684
111390,1755608013493,16.75,-44.53,-14.81,779,775,783,333,838,33.333333333333336,-0.288,-0.67,0.683
111419,1755608013523,16.78,-44.56,-14.81,785,777,780,357,841,34.48275862068966,-0.289,-0.671,0.684
111449,1755608013552,16.79,-44.52,-14.8,786,777,784,400,841,33.333333333333336,-0.289,-0.671,0.687
111478,1755608013582,16.78,-44.51,-14.8,777,778,776,396,842,34.48275862068966,-0.288,-0.67,0.687
111508,1755608013611,16.81,-44.51,-14.81,786,774,781,336,847,33.333333333333336,-0.289,-0.671,0.685
111558,1755608013661,16.89,-44.47,-14.78,781,777,777,340,841,50.0,-0.291,-0.671,0.681
111587,1755608013690,16.87,-44.49,-14.78,785,772,778,330,847,34.48275862068966,-0.291,-0.671,0.681
111617,1755608013720,16.85,-44.57,-14.78,779,774,782,378,845,33.333333333333336,-0.292,-0.672,0.681
111646,1755608013749,16.9,-44.55,-14.75,779,780,782,411,840,34.48275862068966,-0.292,-0.672,0.684
111676,1755608013779,16.91,-44.46,-14.73,785,779,778,369,836,33.333333333333336,-0.289,-0.671,0.684
111735,1755608013838,16.87,-44.49,-14.74,778,776,782,390,838,33.333333333333336,-0.289,-0.671,0.681
111764,1755608013868,16.91,-44.5,-14.72,783,779,781,410,845,34.48275862068966,-0.291,-0.671,0.682
111794,1755608013897,16.88,-44.49,-14.72,785,774,780,380,840,33.333333333333336,-0.293,-0.671,0.684
111823,1755608013926,16.92,-44.49,-14.7,784,779,784,358,845,34.48275862068966,-0.292,-0.669,0.686
111853,1755608013956,16.94,-44.45,-14.69,781,774,781,361,839,33.333333333333336,-0.29,-0.669,0.687
111912,1755608014015,16.9,-44.42,-14.72,786,777,782,413,839,33.333333333333336,-0.288,-0.668,0.685
111941,1755608014045,16.94,-44.41,-14.72,785,773,784,362,841,34.48275862068966,-0.289,-0.668,0.684
111971,1755608014074,16.93,-44.45,-14.76,784,780,782,345,842,33.333333333333336,-0.291,-0.669,0.683
112001,1755608014104,16.96,-44.46,-14.76,778,776,782,381,842,33.333333333333336,-0.292,-0.669,0.683
112030,1755608014133,16.98,-44.46,-14.75,778,779,781,407,845,34.48275862068966,-0.291,-0.67,0.684
112060,1755608014163,16.96,-44.47,-14.76,782,774,785,374,843,33.333333333333336,-0.289,-0.671,0.684
112090,1755608014193,16.97,-44.48,-14.77,784,768,779,340,844,33.333333333333336,-0.289,-0.671,0.684
112119,1755608014222,17.0,-44.49,-14.77,786,776,776,359,840,34.48275862068966,-0.29,-0.67,0.684
112149,1755608014252,17.02,-44.48,-14.78,783,775,777,390,839,33.333333333333336,-0.29,-0.668,0.683
112178,1755608014281,17.03,-44.47,-14.81,777,775,784,384,844,34.48275862068966,-0.29,-0.669,0.683
112208,1755608014311,16.99,-44.49,-14.85,784,769,783,356,841,33.333333333333336,-0.29,-0.672,0.683
112238,1755608014341,17.04,-44.49,-14.81,780,779,781,341,842,33.333333333333336,-0.291,-0.672,0.686
112268,1755608014371,17.08,-44.44,-14.81,783,769,781,384,841,33.333333333333336,-0.289,-0.671,0.687
112297,1755608014400,17.08,-44.39,-14.84,784,778,784,407,838,34.48275862068966,-0.29,-0.671,0.685
112327,1755608014430,17.09,-44.41,-14.85,784,782,779,374,837,33.333333333333336,-0.289,-0.67,0.682
112356,1755608014459,17.1,-44.47,-14.86,787,773,784,344,842,34.48275862068966,-0.291,-0.672,0.681
112386,1755608014489,17.08,-44.44,-14.85,783,779,777,358,839,33.333333333333336,-0.292,-0.673,0.682
112415,1755608014518,17.1,-44.4,-14.82,786,781,783,417,847,34.48275862068966,-0.292,-0.672,0.684
112445,1755608014548,17.12,-44.42,-14.81,785,773,775,408,842,33.333333333333336,-0.292,-0.671,0.684
112475,1755608014578,17.1,-44.42,-14.8,780,775,785,347,842,33.333333333333336,-0.291,-0.67,0.684
112504,1755608014607,17.03,-44.48,-14.86,784,775,781,336,842,34.48275862068966,-0.29,-0.669,0.684
112533,1755608014637,17.03,-44.49,-14.87,784,777,777,379,843,34.48275862068966,-0.291,-0.671,0.686
112563,1755608014666,17.03,-44.45,-14.87,776,774,782,400,843,33.333333333333336,-0.29,-0.672,0.686
112593,1755608014696,17.04,-44.4,-14.87,784,777,779,369,844,33.333333333333336,-0.29,-0.673,0.685
112622,1755608014725,17.04,-44.39,-14.88,783,776,784,344,844,34.48275862068966,-0.29,-0.672,0.682
112652,1755608014755,17.03,-44.41,-14.9,783,774,782,350,843,33.333333333333336,-0.291,-0.672,0.682
112681,1755608014785,16.99,-44.36,-14.91,784,775,785,411,838,34.48275862068966,-0.29,-0.673,0.684
112701,1755608014804,16.97,-44.35,-14.92,782,774,785,363,850,50.0,-0.29,-0.673,0.686
112731,1755608014834,16.98,-44.33,-14.91,781,779,777,404,845,33.333333333333336,-0.289,-0.673,0.686
112760,1755608014863,17.02,-44.31,-14.89,785,782,779,390,843,34.48275862068966,-0.289,-0.671,0.684
112790,1755608014893,16.99,-44.31,-14.9,783,769,780,298,838,33.333333333333336,-0.289,-0.669,0.683
112819,1755608014922,16.96,-44.32,-14.92,783,775,781,341,844,34.48275862068966,-0.289,-0.668,0.684
112849,1755608014952,16.98,-44.34,-14.91,785,769,783,405,841,33.333333333333336,-0.289,-0.669,0.686
112878,1755608014981,16.96,-44.33,-14.9,783,773,787,405,836,34.48275862068966,-0.289,-0.67,0.689
112908,1755608015011,16.95,-44.26,-14.89,785,776,776,365,841,33.333333333333336,-0.288,-0.671,0.689
112938,1755608015041,16.98,-44.26,-14.88,785,775,779,356,840,33.333333333333336,-0.286,-0.67,0.688
112967,1755608015071,16.99,-44.27,-14.88,780,774,783,400,841,34.48275862068966,-0.286,-0.67,0.688
112997,1755608015100,16.99,-44.21,-14.88,787,765,782,428,838,33.333333333333336,-0.287,-0.67,0.688
113026,1755608015129,16.97,-44.24,-14.9,779,768,786,394,839,34.48275862068966,-0.287,-0.669,0.687
113056,1755608015159,16.96,-44.28,-14.91,786,772,783,353,848,33.333333333333336,-0.288,-0.67,0.689
113085,1755608015189,16.96,-44.28,-14.93,786,776,781,362,845,34.48275862068966,-0.288,-0.671,0.687
113115,1755608015219,16.95,-44.23,-14.92,788,773,778,410,840,33.333333333333336,-0.289,-0.67,0.686
113145,1755608015248,16.94,-44.2,-14.93,784,779,782,394,840,33.333333333333336,-0.288,-0.67,0.687
113165,1755608015268,16.93,-44.17,-14.94,787,775,780,399,842,50.0,-0.288,-0.67,0.687
113194,1755608015297,16.86,-44.13,-14.95,782,778,778,346,840,34.48275862068966,-0.287,-0.669,0.688
113224,1755608015327,16.87,-44.11,-14.97,785,776,780,340,839,33.333333333333336,-0.286,-0.667,0.687
113253,1755608015356,16.89,-44.14,-14.98,785,776,785,351,841,34.48275862068966,-0.286,-0.667,0.686
113283,1755608015386,16.88,-44.19,-14.99,785,778,782,398,842,33.333333333333336,-0.286,-0.669,0.687
113312,1755608015415,16.9,-44.18,-14.97,784,773,785,422,845,34.48275862068966,-0.285,-0.668,0.689
113342,1755608015445,16.87,-44.15,-14.98,782,777,775,365,844,33.333333333333336,-0.284,-0.667,0.691
113371,1755608015474,16.82,-44.11,-15.03,779,779,781,352,840,34.48275862068966,-0.284,-0.665,0.69
113401,1755608015504,16.81,-44.13,-15.06,780,778,781,399,844,33.333333333333336,-0.285,-0.667,0.687
113430,1755608015533,16.83,-44.18,-15.07,782,781,781,398,843,34.48275862068966,-0.288,-0.67,0.686
113460,1755608015563,16.85,-44.17,-15.06,783,772,783,371,841,33.333333333333336,-0.289,-0.67,0.687
113489,1755608015592,16.86,-44.17,-15.05,783,773,780,303,844,34.48275862068966,-0.287,-0.669,0.686
113519,1755608015622,16.84,-44.2,-15.05,779,777,780,342,841,33.333333333333336,-0.284,-0.669,0.685
113548,1755608015651,16.83,-44.25,-15.06,784,768,781,404,838,34.48275862068966,-0.284,-0.67,0.688
113607,1755608015710,16.85,-44.16,-15.07,783,777,781,353,838,34.48275862068966,-0.284,-0.669,0.69
113637,1755608015740,16.89,-44.16,-15.06,782,770,781,346,843,33.333333333333336,-0.285,-0.67,0.688
113666,1755608015770,16.91,-44.15,-15.03,784,779,781,401,839,34.48275862068966,-0.285,-0.67,0.687
