timestamp_ms,recv_timestamp_ms,pitch,roll,yaw,flex1,flex2,flex3,flex4,flex5,sampling_hz,accel_x,accel_y,accel_z
46085,1755604092651,11.17,68.05,11.81,819,893,870,358,904,34.48275862068966,-0.192,0.912,0.377
46115,1755604092653,11.16,68.06,11.79,825,895,868,391,898,33.333333333333336,-0.19,0.911,0.375
46144,1755604092654,11.17,68.05,11.77,824,886,860,403,898,34.48275862068966,-0.191,0.912,0.377
46174,1755604092656,11.17,68.04,11.76,822,892,866,373,920,33.333333333333336,-0.192,0.911,0.378
46203,1755604092659,11.17,68.06,11.75,825,889,868,360,893,34.48275862068966,-0.193,0.911,0.377
46233,1755604092661,11.18,68.04,11.74,821,892,859,384,924,33.333333333333336,-0.193,0.911,0.377
46262,1755604092663,11.17,68.02,11.74,824,897,866,402,899,34.48275862068966,-0.192,0.911,0.378
46291,1755604092664,11.18,68.02,11.72,818,896,860,385,888,34.48275862068966,-0.192,0.912,0.377
46320,1755604092667,11.19,68.01,11.7,822,895,867,333,903,34.48275862068966,-0.193,0.912,0.378
46350,1755604092669,11.19,68.02,11.71,821,891,860,368,894,33.333333333333336,-0.194,0.911,0.377
46379,1755604092670,11.21,67.99,11.7,825,892,868,417,900,34.48275862068966,-0.194,0.911,0.376
46408,1755604092673,11.2,67.99,11.7,823,892,864,399,897,34.48275862068966,-0.193,0.912,0.376
46438,1755604092675,11.2,67.99,11.67,819,893,862,338,897,33.333333333333336,-0.192,0.913,0.377
46468,1755604092677,11.22,67.99,11.65,818,890,867,341,897,33.333333333333336,-0.191,0.912,0.379
46497,1755604092679,11.23,68.01,11.63,822,892,871,384,902,34.48275862068966,-0.192,0.912,0.379
46527,1755604092681,11.25,68.0,11.59,817,892,861,386,906,33.333333333333336,-0.192,0.912,0.376
46556,1755604092683,11.26,67.97,11.58,825,897,865,352,909,34.48275862068966,-0.192,0.91,0.374
46586,1755604092686,11.24,67.94,11.53,824,894,870,350,897,33.333333333333336,-0.192,0.911,0.375
46615,1755604092687,11.26,67.92,11.45,817,885,861,374,910,34.48275862068966,-0.193,0.913,0.38
46645,1755604092689,11.24,67.91,11.32,824,889,863,409,904,33.333333333333336,-0.186,0.911,0.379
46675,1755604092692,11.24,67.93,11.26,821,897,871,391,903,33.333333333333336,-0.19,0.911,0.38
46704,1755604092694,11.28,67.9,11.23,823,897,863,351,899,34.48275862068966,-0.195,0.911,0.379
46734,1755604092696,11.29,67.92,11.25,821,888,865,349,898,33.333333333333336,-0.199,0.91,0.378
46763,1755604092698,11.32,67.88,11.26,821,895,866,409,899,34.48275862068966,-0.199,0.909,0.378
46792,1755604092700,11.31,67.86,11.28,824,894,867,407,898,34.48275862068966,-0.197,0.911,0.379
46822,1755604092702,11.3,67.93,11.26,820,903,867,342,905,33.333333333333336,-0.196,0.913,0.38
46851,1755604092704,11.37,67.93,11.22,826,895,870,352,897,34.48275862068966,-0.197,0.911,0.382
46880,1755604092733,11.35,67.97,11.22,823,896,858,397,900,34.48275862068966,-0.197,0.91,0.379
46910,1755604092762,11.38,67.98,11.19,820,898,867,388,901,33.333333333333336,-0.198,0.91,0.377
46939,1755604092792,11.39,67.97,11.18,819,896,880,354,899,34.48275862068966,-0.199,0.91,0.377
46969,1755604092822,11.4,68.0,11.18,821,897,862,353,901,33.333333333333336,-0.199,0.91,0.378
46989,1755604092841,11.41,67.99,11.16,831,894,864,381,898,50.0,-0.198,0.91,0.377
47018,1755604092871,11.39,68.0,11.14,817,896,868,362,900,34.48275862068966,-0.196,0.91,0.376
47048,1755604092901,11.38,67.97,11.11,824,893,874,404,904,33.333333333333336,-0.197,0.91,0.377
47078,1755604092931,11.42,67.98,11.1,823,890,862,408,897,33.333333333333336,-0.202,0.91,0.382
47107,1755604092960,11.45,68.04,11.15,814,908,861,377,899,34.48275862068966,-0.202,0.911,0.379
47137,1755604092989,11.45,68.04,11.15,827,889,870,356,898,33.333333333333336,-0.198,0.91,0.376
47166,1755604093019,11.47,67.95,11.12,819,891,870,370,904,34.48275862068966,-0.196,0.908,0.379
47196,1755604093048,11.47,67.97,11.13,821,892,863,420,897,33.333333333333336,-0.198,0.91,0.381
47225,1755604093078,11.49,68.0,11.11,824,889,866,384,898,34.48275862068966,-0.199,0.911,0.381
47254,1755604093106,11.52,67.99,11.11,821,898,868,342,901,34.48275862068966,-0.199,0.908,0.38
47284,1755604093136,11.51,68.0,11.11,827,900,863,340,901,33.333333333333336,-0.198,0.908,0.379
47313,1755604093165,11.51,68.0,11.08,823,891,866,398,899,34.48275862068966,-0.199,0.91,0.378
47342,1755604093195,11.51,68.04,11.11,817,894,877,399,898,34.48275862068966,-0.201,0.91,0.378
47372,1755604093224,11.53,68.0,11.11,826,892,866,357,901,33.333333333333336,-0.199,0.909,0.38
47401,1755604093254,11.58,67.99,11.08,820,890,869,365,900,34.48275862068966,-0.196,0.91,0.382
47431,1755604093284,11.58,67.98,11.09,817,893,872,405,904,33.333333333333336,-0.195,0.909,0.38
47461,1755604093313,11.58,68.0,11.06,821,891,873,399,894,33.333333333333336,-0.196,0.911,0.379
47490,1755604093342,11.63,68.01,11.03,821,895,862,376,895,34.48275862068966,-0.199,0.911,0.377
47519,1755604093372,11.63,67.98,11.07,828,897,862,351,894,34.48275862068966,-0.2,0.908,0.375
47549,1755604093401,11.65,67.98,11.08,817,891,875,391,891,33.333333333333336,-0.199,0.911,0.38
47578,1755604093431,11.68,67.99,11.09,825,892,859,426,899,34.48275862068966,-0.196,0.912,0.381
47608,1755604093460,11.69,67.99,11.06,825,888,873,392,900,33.333333333333336,-0.194,0.91,0.378
47637,1755604093490,11.71,67.95,11.03,826,898,870,351,900,34.48275862068966,-0.197,0.91,0.377
47667,1755604093520,11.67,67.93,11.06,823,901,861,359,897,33.333333333333336,-0.198,0.909,0.378
47697,1755604093549,11.69,67.97,11.05,820,891,865,400,897,33.333333333333336,-0.199,0.91,0.38
47726,1755604093579,11.73,68.0,11.03,827,889,862,401,898,34.48275862068966,-0.2,0.912,0.378
47756,1755604093608,11.71,67.99,11.09,823,890,872,320,898,33.333333333333336,-0.197,0.909,0.377
47785,1755604093638,11.72,67.96,11.07,820,892,859,295,895,34.48275862068966,-0.194,0.91,0.376
47815,1755604093667,11.72,67.94,11.03,820,892,864,366,899,33.333333333333336,-0.194,0.911,0.377
47844,1755604093697,11.71,67.92,10.99,818,898,868,405,897,34.48275862068966,-0.196,0.91,0.377
47874,1755604093726,11.72,67.93,11.0,822,891,871,360,893,33.333333333333336,-0.198,0.909,0.378
47903,1755604093755,11.71,67.92,11.04,818,892,864,330,897,34.48275862068966,-0.199,0.909,0.38
47932,1755604093785,11.72,67.97,11.05,824,894,871,366,889,34.48275862068966,-0.198,0.911,0.379
47962,1755604093814,11.73,67.95,11.05,822,897,859,407,909,33.333333333333336,-0.196,0.909,0.377
47991,1755604093844,11.72,67.91,11.05,820,899,861,394,904,34.48275862068966,-0.195,0.908,0.378
48021,1755604093873,11.72,67.89,11.03,823,892,873,356,902,33.333333333333336,-0.196,0.911,0.377
48050,1755604093903,11.69,67.85,11.02,821,892,866,374,896,34.48275862068966,-0.196,0.91,0.378
48080,1755604093933,11.71,67.84,11.0,820,896,869,422,926,33.333333333333336,-0.196,0.91,0.38
48110,1755604093963,11.71,67.88,11.02,811,896,865,408,901,33.333333333333336,-0.196,0.911,0.381
48139,1755604093992,11.7,67.9,11.02,824,887,869,353,900,34.48275862068966,-0.195,0.911,0.379
48169,1755604094021,11.72,67.85,10.99,827,891,862,347,902,33.333333333333336,-0.195,0.91,0.378
48198,1755604094051,11.71,67.83,11.01,823,889,863,377,899,34.48275862068966,-0.195,0.91,0.379
48228,1755604094080,11.72,67.82,10.98,827,895,865,403,897,33.333333333333336,-0.195,0.91,0.38
48257,1755604094109,11.73,67.81,10.98,825,888,864,367,896,34.48275862068966,-0.196,0.91,0.38
48287,1755604094139,11.71,67.79,11.0,814,887,852,349,894,33.333333333333336,-0.195,0.91,0.379
48316,1755604094168,11.73,67.8,10.95,822,885,873,373,901,34.48275862068966,-0.195,0.911,0.38
48345,1755604094198,11.73,67.79,10.95,825,895,866,406,897,34.48275862068966,-0.195,0.909,0.38
48375,1755604094228,11.7,67.77,10.96,817,894,864,392,899,33.333333333333336,-0.195,0.909,0.381
48405,1755604094257,11.72,67.79,10.95,817,893,867,354,907,33.333333333333336,-0.196,0.911,0.381
48434,1755604094287,11.71,67.79,10.95,822,892,862,364,900,34.48275862068966,-0.194,0.91,0.38
48464,1755604094316,11.7,67.78,10.95,822,890,866,412,900,33.333333333333336,-0.193,0.909,0.38
48493,1755604094345,11.7,67.74,10.92,825,888,863,404,895,34.48275862068966,-0.195,0.908,0.381
48523,1755604094375,11.66,67.77,10.94,818,886,870,357,897,33.333333333333336,-0.196,0.91,0.383
48552,1755604094404,11.67,67.79,10.95,822,897,863,351,898,34.48275862068966,-0.195,0.91,0.382
48581,1755604094434,11.66,67.78,10.95,819,897,865,386,899,34.48275862068966,-0.193,0.91,0.381
48611,1755604094463,11.65,67.76,10.94,825,885,861,402,899,33.333333333333336,-0.191,0.909,0.38
48640,1755604094493,11.65,67.72,10.94,820,892,866,377,897,34.48275862068966,-0.192,0.911,0.383
48670,1755604094522,11.66,67.75,10.93,827,894,873,339,905,33.333333333333336,-0.193,0.91,0.384
48699,1755604094552,11.68,67.74,10.93,813,896,863,331,899,34.48275862068966,-0.193,0.908,0.382
48728,1755604094581,11.7,67.75,10.93,822,899,864,389,897,34.48275862068966,-0.193,0.91,0.382
48758,1755604094611,11.7,67.74,10.94,827,888,858,382,887,33.333333333333336,-0.192,0.91,0.381
48787,1755604094640,11.69,67.7,10.91,827,895,865,342,899,34.48275862068966,-0.191,0.909,0.379
48817,1755604094670,11.67,67.69,10.91,826,895,861,351,897,33.333333333333336,-0.193,0.909,0.38
48847,1755604094699,11.67,67.7,10.92,824,894,866,406,907,33.333333333333336,-0.194,0.909,0.383
48876,1755604094728,11.7,67.73,10.91,817,898,864,403,897,34.48275862068966,-0.193,0.91,0.383
48906,1755604094758,11.7,67.69,10.9,824,891,864,348,903,33.333333333333336,-0.192,0.908,0.381
48935,1755604094788,11.67,67.68,10.89,826,899,870,356,893,34.48275862068966,-0.191,0.909,0.381
48965,1755604094817,11.67,67.73,10.86,824,890,865,396,904,33.333333333333336,-0.192,0.911,0.383
48994,1755604094847,11.69,67.75,10.84,831,897,864,410,891,34.48275862068966,-0.193,0.909,0.382
49024,1755604094876,11.69,67.72,10.84,819,897,866,388,916,33.333333333333336,-0.192,0.907,0.38
49053,1755604094905,11.69,67.72,10.82,820,885,866,359,901,34.48275862068966,-0.192,0.909,0.38
49082,1755604094935,11.67,67.73,10.83,830,886,866,397,895,34.48275862068966,-0.193,0.912,0.38
49112,1755604094965,11.65,67.73,10.82,823,901,861,421,904,33.333333333333336,-0.191,0.909,0.381
49132,1755604094985,11.64,67.72,10.81,820,898,870,370,902,50.0,-0.192,0.909,0.38
49162,1755604095014,11.64,67.74,10.79,830,893,866,409,894,33.333333333333336,-0.193,0.91,0.38
49191,1755604095044,11.63,67.75,10.78,821,889,868,340,898,34.48275862068966,-0.193,0.91,0.381
49221,1755604095073,11.64,67.72,10.77,824,883,859,320,896,33.333333333333336,-0.193,0.908,0.381
49250,1755604095102,11.63,67.72,10.77,824,893,868,350,899,34.48275862068966,-0.193,0.91,0.381
49279,1755604095132,11.62,67.73,10.75,831,903,864,401,902,34.48275862068966,-0.193,0.91,0.382
49309,1755604095161,11.62,67.74,10.74,823,899,869,394,898,33.333333333333336,-0.193,0.909,0.382
49338,1755604095191,11.62,67.72,10.73,825,898,864,351,895,34.48275862068966,-0.193,0.908,0.382
49368,1755604095221,11.62,67.72,10.72,824,896,856,362,894,33.333333333333336,-0.194,0.91,0.382
49398,1755604095250,11.64,67.69,10.71,821,898,865,389,896,33.333333333333336,-0.194,0.91,0.384
49427,1755604095280,11.63,67.69,10.7,823,888,863,393,895,34.48275862068966,-0.192,0.91,0.383
49457,1755604095309,11.63,67.65,10.67,829,890,872,367,899,33.333333333333336,-0.192,0.91,0.383
49486,1755604095338,11.63,67.64,10.66,830,896,861,359,897,34.48275862068966,-0.193,0.909,0.383
49515,1755604095368,11.6,67.67,10.66,826,890,873,390,900,34.48275862068966,-0.193,0.909,0.383
49545,1755604095397,11.59,67.68,10.19,820,885,855,374,896,33.333333333333336,-0.192,0.908,0.383
49574,1755604095427,11.61,67.65,10.16,825,888,859,355,905,34.48275862068966,-0.192,0.908,0.383
49604,1755604095456,11.61,67.65,10.14,820,895,865,342,898,33.333333333333336,-0.193,0.908,0.384
49633,1755604095486,11.6,67.67,10.13,822,893,864,352,893,34.48275862068966,-0.194,0.909,0.383
49663,1755604095516,11.61,67.66,10.12,824,897,862,407,899,33.333333333333336,-0.194,0.909,0.382
49693,1755604095545,11.61,67.63,10.1,818,894,866,391,897,33.333333333333336,-0.194,0.907,0.382
49722,1755604095574,11.59,67.63,10.1,825,885,855,352,896,34.48275862068966,-0.194,0.908,0.383
49751,1755604095604,11.59,67.65,10.1,821,886,864,356,896,34.48275862068966,-0.195,0.909,0.384
49781,1755604095634,11.58,67.66,10.12,825,896,863,391,894,33.333333333333336,-0.195,0.908,0.383
49811,1755604095663,11.58,67.65,10.1,823,898,862,398,897,33.333333333333336,-0.194,0.908,0.383
49840,1755604095693,11.58,67.65,10.08,829,892,875,358,901,34.48275862068966,-0.193,0.908,0.382
49870,1755604095722,11.58,67.62,10.06,822,891,863,344,894,33.333333333333336,-0.194,0.908,0.383
49899,1755604095751,11.58,67.65,10.05,824,886,866,366,893,34.48275862068966,-0.195,0.909,0.384
49928,1755604095781,11.58,67.67,10.05,828,888,882,395,894,34.48275862068966,-0.194,0.909,0.383
49958,1755604095810,11.58,67.65,10.04,820,889,864,392,904,33.333333333333336,-0.193,0.907,0.383
49987,1755604095840,11.58,67.63,10.03,820,897,865,349,899,34.48275862068966,-0.193,0.907,0.385
50017,1755604095869,11.59,67.65,10.0,824,894,866,367,894,33.333333333333336,-0.194,0.907,0.384
50046,1755604095899,11.58,67.21,9.99,816,896,866,416,891,34.48275862068966,-0.194,0.905,0.383
50076,1755604095929,11.58,67.21,10.0,823,888,859,410,903,33.333333333333336,-0.194,0.907,0.383
50096,1755604095948,11.6,67.2,9.98,824,891,871,380,903,50.0,-0.193,0.909,0.383
50125,1755604095978,11.61,67.23,9.95,816,907,856,389,896,34.48275862068966,-0.194,0.91,0.384
50155,1755604096008,11.63,67.28,9.95,824,891,868,333,902,33.333333333333336,-0.194,0.909,0.383
50185,1755604096037,11.64,67.23,9.94,817,895,868,352,899,33.333333333333336,-0.194,0.908,0.379
50214,1755604096067,11.61,67.2,9.95,823,895,861,396,902,34.48275862068966,-0.193,0.908,0.381
50244,1755604096096,11.64,67.22,9.92,821,895,870,403,892,33.333333333333336,-0.194,0.91,0.386
50273,1755604096126,11.66,67.27,9.91,820,896,874,369,899,34.48275862068966,-0.194,0.909,0.383
50303,1755604096155,11.67,67.28,9.91,823,891,865,355,899,33.333333333333336,-0.194,0.908,0.381
50332,1755604096185,11.67,67.26,9.92,822,892,886,369,895,34.48275862068966,-0.193,0.908,0.381
50362,1755604096214,11.66,67.25,9.91,820,894,863,410,904,33.333333333333336,-0.194,0.908,0.382
50391,1755604096244,11.69,67.25,9.88,822,895,863,388,901,34.48275862068966,-0.196,0.909,0.384
50421,1755604096273,11.68,67.28,9.92,823,894,864,341,897,33.333333333333336,-0.196,0.909,0.381
50450,1755604096303,11.67,67.25,9.93,830,902,867,341,899,34.48275862068966,-0.194,0.908,0.381
50480,1755604096332,11.67,67.24,9.93,824,898,862,404,906,33.333333333333336,-0.193,0.909,0.382
50509,1755604096362,11.67,67.27,9.94,822,894,868,402,901,34.48275862068966,-0.193,0.909,0.384
50539,1755604096391,11.69,67.28,9.91,824,889,873,364,897,33.333333333333336,-0.194,0.908,0.384
50568,1755604096420,11.67,67.29,9.94,818,891,862,358,905,34.48275862068966,-0.193,0.909,0.382
50597,1755604096450,11.66,67.3,9.92,820,892,874,411,904,34.48275862068966,-0.191,0.909,0.382
50627,1755604096480,11.69,67.32,9.89,818,902,867,414,904,33.333333333333336,-0.192,0.91,0.383
50657,1755604096509,11.68,67.33,9.89,826,891,867,386,906,33.333333333333336,-0.191,0.909,0.383
50686,1755604096539,11.68,67.34,9.87,823,891,862,361,901,34.48275862068966,-0.192,0.909,0.382
50716,1755604096568,11.68,67.38,9.86,823,889,874,388,899,33.333333333333336,-0.192,0.91,0.383
50745,1755604096598,11.66,67.39,9.87,822,899,877,419,904,34.48275862068966,-0.192,0.91,0.381
50775,1755604096627,11.67,67.39,9.84,821,888,864,391,896,33.333333333333336,-0.192,0.91,0.38
50804,1755604096656,11.66,67.41,9.85,822,893,864,328,890,34.48275862068966,-0.192,0.91,0.382
50833,1755604096686,11.66,67.43,9.82,821,895,865,349,894,34.48275862068966,-0.192,0.911,0.381
50863,1755604096716,11.66,67.43,9.82,824,894,864,397,899,33.333333333333336,-0.191,0.909,0.378
50893,1755604096746,11.64,67.42,9.82,822,899,865,408,899,33.333333333333336,-0.192,0.91,0.38
50913,1755604096766,11.63,67.43,9.81,822,895,870,386,904,50.0,-0.192,0.912,0.381
50972,1755604096825,11.62,67.45,9.8,826,898,875,343,908,33.333333333333336,-0.191,0.91,0.379
51001,1755604096854,11.62,67.41,9.78,836,895,862,348,915,34.48275862068966,-0.192,0.91,0.381
51031,1755604096884,11.62,67.42,9.78,822,890,864,382,911,33.333333333333336,-0.193,0.912,0.382
51060,1755604096913,11.62,67.41,9.76,822,898,871,399,902,34.48275862068966,-0.191,0.91,0.38
51090,1755604096942,11.63,67.38,9.75,823,894,872,365,900,33.333333333333336,-0.191,0.91,0.381
51119,1755604096972,11.62,67.36,9.75,826,889,871,330,898,34.48275862068966,-0.192,0.91,0.383
51148,1755604097001,11.61,67.4,9.75,817,887,870,377,900,34.48275862068966,-0.193,0.91,0.382
51178,1755604097030,11.63,67.4,9.75,822,893,865,410,897,33.333333333333336,-0.193,0.909,0.381
51207,1755604097060,11.61,67.4,9.76,820,898,860,389,905,34.48275862068966,-0.191,0.908,0.381
51237,1755604097089,11.61,67.41,9.74,821,889,864,342,899,33.333333333333336,-0.191,0.909,0.384
51266,1755604097119,11.6,67.41,9.73,825,897,858,362,895,34.48275862068966,-0.191,0.91,0.384
51296,1755604097148,11.6,67.4,9.72,821,884,862,402,898,33.333333333333336,-0.192,0.909,0.384
51325,1755604097178,11.59,67.43,9.73,826,901,865,394,898,34.48275862068966,-0.192,0.909,0.383
51355,1755604097207,11.58,67.45,9.75,825,903,859,305,903,33.333333333333336,-0.192,0.909,0.382
51384,1755604097237,11.58,67.42,9.74,819,895,864,333,900,34.48275862068966,-0.191,0.908,0.384
51414,1755604097266,11.57,67.44,9.72,821,886,867,388,893,33.333333333333336,-0.191,0.909,0.385
51443,1755604097296,11.57,67.46,9.72,824,889,866,401,899,34.48275862068966,-0.192,0.909,0.384
51473,1755604097325,11.56,67.47,9.72,818,888,857,353,899,33.333333333333336,-0.191,0.909,0.383
51502,1755604097354,11.57,67.49,9.71,825,892,863,300,900,34.48275862068966,-0.192,0.91,0.385
51531,1755604097384,11.58,67.49,9.7,821,895,856,382,897,34.48275862068966,-0.191,0.909,0.384
51561,1755604097414,11.56,67.53,9.71,820,890,872,410,903,33.333333333333336,-0.19,0.91,0.384
51590,1755604097443,11.58,67.53,9.68,823,892,865,376,904,34.48275862068966,-0.19,0.91,0.384
51620,1755604097472,11.56,67.54,9.67,821,889,874,344,899,33.333333333333336,-0.19,0.911,0.383
51649,1755604097502,11.56,67.57,9.65,823,890,860,372,896,34.48275862068966,-0.191,0.912,0.384
51679,1755604097531,11.58,67.6,9.62,827,888,852,421,902,33.333333333333336,-0.191,0.911,0.383
51708,1755604097561,11.59,67.62,9.61,825,887,862,389,895,34.48275862068966,-0.191,0.911,0.381
51738,1755604097591,11.59,67.61,9.59,822,892,879,339,904,33.333333333333336,-0.191,0.91,0.382
51767,1755604097620,11.58,67.6,9.59,823,891,866,339,896,34.48275862068966,-0.19,0.91,0.382
51797,1755604097649,11.58,67.61,9.57,822,897,867,387,895,33.333333333333336,-0.191,0.91,0.383
51826,1755604097678,11.58,67.63,9.57,823,896,867,400,900,34.48275862068966,-0.192,0.91,0.383
51855,1755604097708,11.59,67.63,9.56,818,884,863,364,900,34.48275862068966,-0.191,0.909,0.383
51885,1755604097737,11.59,67.63,9.54,823,895,862,357,891,33.333333333333336,-0.191,0.909,0.382
51914,1755604097767,11.58,67.63,9.53,818,892,856,396,896,34.48275862068966,-0.191,0.911,0.383
51944,1755604097796,11.59,67.68,9.52,823,900,866,417,897,33.333333333333336,-0.191,0.911,0.382
51973,1755604097826,11.61,67.69,9.51,817,890,855,364,894,34.48275862068966,-0.19,0.911,0.379
52002,1755604097855,11.6,67.63,9.5,818,896,861,341,900,34.48275862068966,-0.19,0.91,0.381
52032,1755604097884,11.62,67.63,9.49,829,893,863,368,897,33.333333333333336,-0.189,0.91,0.384
52061,1755604097914,11.63,67.64,9.46,824,893,855,393,904,34.48275862068966,-0.191,0.91,0.384
52091,1755604097943,11.63,67.63,9.46,824,889,868,378,908,33.333333333333336,-0.191,0.909,0.383
52120,1755604097973,11.63,67.59,9.46,815,882,864,338,898,34.48275862068966,-0.191,0.908,0.382
52150,1755604098002,11.63,67.6,9.45,823,888,869,351,901,33.333333333333336,-0.191,0.909,0.383
52179,1755604098032,11.65,67.6,9.44,822,893,858,402,897,34.48275862068966,-0.192,0.91,0.383
52209,1755604098061,11.67,67.6,9.43,821,891,857,359,896,33.333333333333336,-0.191,0.908,0.383
52238,1755604098091,11.66,67.58,9.42,823,892,870,341,905,34.48275862068966,-0.19,0.909,0.381
52268,1755604098120,11.63,67.55,9.41,822,893,874,349,903,33.333333333333336,-0.189,0.909,0.382
52297,1755604098149,11.64,67.54,9.38,825,892,858,398,899,34.48275862068966,-0.191,0.91,0.385
52326,1755604098179,11.66,67.55,9.34,824,888,873,395,895,34.48275862068966,-0.192,0.909,0.387
52356,1755604098208,11.66,67.59,9.34,823,884,860,346,893,33.333333333333336,-0.191,0.909,0.385
52385,1755604098238,11.65,67.6,9.32,819,891,861,340,900,34.48275862068966,-0.191,0.909,0.381
52414,1755604098267,11.63,67.58,9.3,826,885,866,383,898,34.48275862068966,-0.191,0.909,0.38
52444,1755604098296,11.6,67.57,9.29,824,897,865,407,900,33.333333333333336,-0.193,0.91,0.383
52473,1755604098326,11.62,67.61,9.27,826,894,852,382,902,34.48275862068966,-0.194,0.911,0.384
52503,1755604098355,11.63,67.64,9.3,817,903,861,358,890,33.333333333333336,-0.193,0.909,0.382
52532,1755604098385,11.62,67.61,9.27,822,894,857,359,899,34.48275862068966,-0.192,0.909,0.38
52562,1755604098414,11.62,67.67,9.28,820,894,865,398,899,33.333333333333336,-0.193,0.91,0.382
52591,1755604098444,11.64,67.7,9.28,822,882,870,376,896,34.48275862068966,-0.194,0.91,0.383
52611,1755604098464,11.65,67.7,9.29,819,892,864,397,897,50.0,-0.194,0.909,0.381
52641,1755604098494,11.65,67.69,9.3,822,882,862,393,895,33.333333333333336,-0.192,0.91,0.38
52671,1755604098523,11.64,67.69,9.29,823,895,859,345,903,33.333333333333336,-0.189,0.911,0.379
52700,1755604098552,11.64,67.68,9.24,817,893,851,335,896,34.48275862068966,-0.189,0.909,0.38
52729,1755604098582,11.64,67.71,9.23,819,894,863,391,898,34.48275862068966,-0.193,0.91,0.38
52759,1755604098611,11.64,67.7,9.25,821,890,860,404,899,33.333333333333336,-0.194,0.91,0.379
52788,1755604098641,11.61,67.7,9.27,816,893,866,354,898,34.48275862068966,-0.19,0.908,0.379
52818,1755604098670,11.6,67.71,9.22,814,894,862,345,896,33.333333333333336,-0.187,0.91,0.381
52847,1755604098699,11.59,67.7,9.18,823,888,861,380,909,34.48275862068966,-0.189,0.909,0.38
52876,1755604098730,11.59,67.68,9.14,820,896,870,417,900,34.48275862068966,-0.193,0.909,0.38
52896,1755604098749,11.59,67.67,9.13,825,894,856,393,896,50.0,-0.195,0.909,0.382
52926,1755604098778,11.59,67.71,9.15,816,886,867,392,898,33.333333333333336,-0.196,0.909,0.381
52955,1755604098808,11.6,67.68,9.14,823,892,856,369,895,34.48275862068966,-0.195,0.908,0.382
52985,1755604098838,11.63,67.69,9.12,823,899,874,355,898,33.333333333333336,-0.195,0.91,0.383
53014,1755604098867,11.62,67.69,9.13,818,889,869,387,905,34.48275862068966,-0.194,0.908,0.382
53044,1755604098897,11.62,67.7,9.14,827,896,864,420,900,33.333333333333336,-0.191,0.91,0.381
53074,1755604098926,11.62,67.69,9.1,820,894,863,388,898,33.333333333333336,-0.191,0.911,0.381
53103,1755604098956,11.62,67.71,9.1,824,894,853,346,902,34.48275862068966,-0.193,0.911,0.383
53133,1755604098985,11.61,67.71,9.1,830,896,881,361,898,33.333333333333336,-0.191,0.911,0.382
53162,1755604099015,11.61,67.73,9.08,820,898,863,405,897,34.48275862068966,-0.191,0.911,0.382
53192,1755604099044,11.61,67.73,9.07,822,893,867,397,895,33.333333333333336,-0.191,0.91,0.38
53221,1755604099074,11.61,67.69,9.06,820,896,875,358,903,34.48275862068966,-0.192,0.909,0.38
53251,1755604099103,11.63,67.67,9.06,821,893,869,354,900,33.333333333333336,-0.193,0.91,0.38
53280,1755604099133,11.6,67.75,9.09,823,905,875,399,901,34.48275862068966,-0.192,0.91,0.38
53309,1755604099162,11.62,67.73,9.05,825,889,865,414,899,34.48275862068966,-0.192,0.909,0.378
53339,1755604099191,11.62,67.66,9.03,824,896,864,375,905,33.333333333333336,-0.192,0.91,0.377
53368,1755604099221,11.53,67.69,9.02,820,888,860,355,895,34.48275862068966,-0.191,0.909,0.381
53398,1755604099250,11.58,67.65,8.96,823,889,871,388,899,33.333333333333336,-0.191,0.91,0.383
53427,1755604099279,11.58,67.71,8.94,823,893,860,405,892,34.48275862068966,-0.193,0.91,0.383
53456,1755604099309,11.59,67.73,8.92,824,891,873,361,904,34.48275862068966,-0.193,0.91,0.384
53486,1755604099339,11.6,67.71,8.91,821,893,867,327,906,33.333333333333336,-0.193,0.909,0.382
53516,1755604099368,11.6,67.75,8.91,822,897,862,362,897,33.333333333333336,-0.192,0.911,0.38
53545,1755604099398,11.61,67.78,8.89,817,894,872,410,899,34.48275862068966,-0.191,0.91,0.379
53574,1755604099427,11.6,67.79,8.88,823,899,867,396,904,34.48275862068966,-0.191,0.91,0.378
53604,1755604099456,11.58,67.75,8.87,824,890,864,345,901,33.333333333333336,-0.192,0.908,0.379
53633,1755604099486,11.56,67.72,8.88,825,891,867,357,887,34.48275862068966,-0.192,0.909,0.381
53663,1755604099515,11.57,67.72,8.87,828,888,864,405,907,33.333333333333336,-0.193,0.911,0.383
53692,1755604099545,11.57,67.77,8.88,826,895,863,395,899,34.48275862068966,-0.192,0.911,0.383
53722,1755604099574,11.56,67.77,8.86,825,895,881,350,899,33.333333333333336,-0.19,0.91,0.381
53751,1755604099604,11.58,67.77,8.8,822,891,860,335,901,34.48275862068966,-0.189,0.909,0.384
53781,1755604099634,11.59,67.78,8.78,824,888,866,386,893,33.333333333333336,-0.192,0.91,0.385
53811,1755604099664,11.59,67.78,8.77,831,899,869,412,895,33.333333333333336,-0.193,0.908,0.385
53840,1755604099693,11.62,67.77,8.75,820,895,858,402,902,34.48275862068966,-0.195,0.908,0.383
53870,1755604099723,11.62,67.77,8.79,828,897,862,302,899,33.333333333333336,-0.196,0.908,0.38
53899,1755604099752,11.62,67.75,8.8,820,893,864,298,889,34.48275862068966,-0.195,0.908,0.381
53929,1755604099781,11.63,67.74,8.8,823,901,867,375,900,33.333333333333336,-0.193,0.909,0.382
53958,1755604099811,11.62,67.72,8.81,829,887,868,393,897,34.48275862068966,-0.191,0.91,0.382
53988,1755604099840,12.05,67.73,8.75,821,888,856,332,899,33.333333333333336,-0.19,0.909,0.382
54017,1755604099869,12.01,67.74,8.73,821,894,865,351,905,34.48275862068966,-0.191,0.909,0.382
54046,1755604099899,11.99,67.72,8.74,826,892,871,397,904,34.48275862068966,-0.193,0.91,0.382
54076,1755604099928,12.0,67.7,8.72,821,895,864,390,898,33.333333333333336,-0.193,0.909,0.383
54105,1755604099957,11.99,67.72,8.71,823,899,875,347,893,34.48275862068966,-0.191,0.909,0.385
54134,1755604099987,11.99,67.71,8.66,819,893,867,337,896,34.48275862068966,-0.189,0.909,0.383
54164,1755604100016,12.0,67.67,8.59,827,899,850,385,896,33.333333333333336,-0.19,0.908,0.383
54193,1755604100046,12.0,67.7,8.57,822,897,864,391,892,34.48275862068966,-0.194,0.91,0.385
54223,1755604100077,12.02,67.76,8.58,821,893,866,352,893,33.333333333333336,-0.196,0.909,0.387
54244,1755604100097,12.03,67.79,8.57,823,898,852,372,895,47.61904761904762,-0.195,0.909,0.384
54274,1755604100126,12.03,67.78,8.57,832,899,862,340,900,33.333333333333336,-0.194,0.907,0.379
54303,1755604100156,12.0,67.73,8.58,824,895,856,321,900,34.48275862068966,-0.195,0.907,0.379
54333,1755604100185,11.99,67.75,8.58,823,886,871,336,904,33.333333333333336,-0.196,0.91,0.384
54362,1755604100214,12.0,67.78,8.61,816,888,864,392,899,34.48275862068966,-0.196,0.908,0.377
54391,1755604100244,11.99,67.76,8.6,826,896,860,394,892,34.48275862068966,-0.193,0.909,0.375
54421,1755604100273,11.97,67.73,8.57,822,897,865,352,900,33.333333333333336,-0.192,0.911,0.379
54450,1755604100303,11.96,67.73,8.57,819,890,866,353,897,34.48275862068966,-0.194,0.91,0.382
54480,1755604100332,11.98,67.7,8.56,822,890,866,393,897,33.333333333333336,-0.196,0.909,0.382
54509,1755604100362,11.97,67.73,8.57,818,890,864,399,904,34.48275862068966,-0.196,0.91,0.382
54539,1755604100391,11.96,67.72,8.58,824,903,860,345,896,33.333333333333336,-0.192,0.908,0.381
54568,1755604100421,11.95,67.72,8.55,828,898,858,347,898,34.48275862068966,-0.192,0.911,0.379
54598,1755604100450,11.94,67.72,8.53,828,903,869,390,895,33.333333333333336,-0.193,0.91,0.381
54627,1755604100480,11.93,67.69,8.54,824,895,867,408,888,34.48275862068966,-0.193,0.908,0.382
54657,1755604100510,11.93,67.67,8.5,820,896,878,384,897,33.333333333333336,-0.191,0.909,0.381
54687,1755604100539,11.9,67.67,8.49,825,897,860,339,895,33.333333333333336,-0.192,0.911,0.38
54716,1755604100569,11.87,67.67,8.48,818,888,867,350,896,34.48275862068966,-0.192,0.91,0.38
54746,1755604100598,11.87,67.63,8.46,824,888,861,417,899,33.333333333333336,-0.194,0.908,0.382
54775,1755604100628,11.85,67.65,8.49,815,897,856,396,898,34.48275862068966,-0.194,0.907,0.384
54804,1755604100657,11.86,67.63,8.45,822,887,862,346,899,34.48275862068966,-0.193,0.91,0.382
54834,1755604100686,11.89,67.59,8.41,816,886,863,353,901,33.333333333333336,-0.195,0.907,0.381
