timestamp_ms,recv_timestamp_ms,pitch,roll,yaw,flex1,flex2,flex3,flex4,flex5,sampling_hz,accel_x,accel_y,accel_z
1970-01-01 00:00:00.000016334,1755597807412,21.96,-40.62,-10.48,775.0,767.0,856.0,925.0,880.0,34.48275862068966,-0.366,-0.634,0.671
1970-01-01 00:00:00.000016364,1755597807442,22.0,-40.56,-10.44,,,,,,33.333333333333336,-0.367,-0.631,0.678
1970-01-01 00:00:00.000016393,1755597807471,21.98,-40.56,-10.44,,,,,,34.48275862068966,-0.369,-0.63,0.68
1970-01-01 00:00:00.000016423,1755597807501,21.97,-40.62,-10.42,,,,,,33.333333333333336,-0.374,-0.629,0.679
1970-01-01 00:00:00.000016453,1755597807531,21.96,-40.68,-10.4,,,,,,33.333333333333336,-0.377,-0.628,0.679
1970-01-01 00:00:00.000016483,1755597807560,21.92,-40.72,-10.39,,,,,,33.333333333333336,-0.377,-0.627,0.681
1970-01-01 00:00:00.000016512,1755597807590,21.88,-40.75,-10.37,,,,,,34.48275862068966,-0.376,-0.625,0.683
1970-01-01 00:00:00.000016542,1755597807619,21.92,-40.8,-10.34,,,,,,33.333333333333336,-0.375,-0.624,0.686
1970-01-01 00:00:00.000016571,1755597807649,21.96,-40.84,-10.31,,,,,,34.48275862068966,-0.376,-0.623,0.688
1970-01-01 00:00:00.000016601,1755597807678,21.98,-40.85,-10.28,,,,,,33.333333333333336,-0.376,-0.622,0.689
1970-01-01 00:00:00.000016660,1755597807737,21.92,-40.83,-10.29,,,,,,33.333333333333336,-0.375,-0.619,0.689
1970-01-01 00:00:00.000016719,1755597807796,21.92,-40.9,-10.31,,,,,,33.333333333333336,-0.379,-0.618,0.69
1970-01-01 00:00:00.000016748,1755597807826,21.83,-40.91,-10.32,,,,,,34.48275862068966,-0.379,-0.617,0.689
1970-01-01 00:00:00.000016778,1755597807856,21.85,-40.99,-10.32,,,,,,33.333333333333336,-0.379,-0.617,0.689
1970-01-01 00:00:00.000016807,1755597807885,21.93,-41.01,-10.29,,,,,,34.48275862068966,-0.379,-0.617,0.689
1970-01-01 00:00:00.000016837,1755597807915,21.9,-41.04,-10.28,,,,,,33.333333333333336,-0.379,-0.619,0.687
1970-01-01 00:00:00.000016866,1755597807944,21.87,-41.12,-10.31,,,,,,34.48275862068966,-0.378,-0.622,0.689
1970-01-01 00:00:00.000016896,1755597807974,21.92,-41.12,-10.29,,,,,,33.333333333333336,-0.378,-0.623,0.687
1970-01-01 00:00:00.000016925,1755597808003,21.9,-41.15,-10.31,,,,,,34.48275862068966,-0.376,-0.625,0.684
1970-01-01 00:00:00.000016955,1755597808033,21.86,-41.18,-10.34,,,,,,33.333333333333336,-0.376,-0.627,0.682
1970-01-01 00:00:00.000016985,1755597808062,21.82,-41.16,-10.34,,,,,,33.333333333333336,-0.376,-0.629,0.681
1970-01-01 00:00:00.000017014,1755597808092,21.8,-41.21,-10.34,,,,,,34.48275862068966,-0.374,-0.629,0.681
1970-01-01 00:00:00.000017044,1755597808122,21.82,-41.3,-10.33,,,,,,33.333333333333336,-0.374,-0.628,0.684
1970-01-01 00:00:00.000017074,1755597808151,21.86,-41.32,-10.33,,,,,,33.333333333333336,-0.375,-0.628,0.687
1970-01-01 00:00:00.000017103,1755597808181,21.81,-41.29,-10.35,,,,,,34.48275862068966,-0.375,-0.626,0.686
1970-01-01 00:00:00.000017133,1755597808210,21.79,-41.33,-10.36,,,,,,33.333333333333336,-0.376,-0.626,0.685
1970-01-01 00:00:00.000017162,1755597808240,21.76,-41.35,-10.36,,,,,,34.48275862068966,-0.377,-0.625,0.684
1970-01-01 00:00:00.000017192,1755597808269,21.7,-41.4,-10.39,,,,,,33.333333333333336,-0.376,-0.625,0.685
1970-01-01 00:00:00.000017221,1755597808299,21.62,-41.42,-10.4,,,,,,34.48275862068966,-0.375,-0.624,0.686
1970-01-01 00:00:00.000017251,1755597808328,21.63,-41.41,-10.35,,,,,,33.333333333333336,-0.373,-0.624,0.688
1970-01-01 00:00:00.000017280,1755597808358,21.63,-41.41,-10.34,,,,,,34.48275862068966,-0.372,-0.626,0.689
1970-01-01 00:00:00.000017339,1755597808417,21.59,-41.46,-10.36,,,,,,34.48275862068966,-0.371,-0.627,0.687
1970-01-01 00:00:00.000017369,1755597808446,21.64,-41.46,-10.33,,,,,,33.333333333333336,-0.371,-0.627,0.687
1970-01-01 00:00:00.000017398,1755597808476,21.62,-41.44,-10.33,,,,,,34.48275862068966,-0.371,-0.627,0.687
1970-01-01 00:00:00.000017457,1755597808535,21.63,-41.44,-10.34,,,,,,34.48275862068966,-0.37,-0.624,0.687
1970-01-01 00:00:00.000017487,1755597808565,21.57,-41.45,-10.39,,,,,,33.333333333333336,-0.37,-0.624,0.688
1970-01-01 00:00:00.000017517,1755597808595,21.52,-41.46,-10.44,,,,,,33.333333333333336,-0.368,-0.625,0.688
1970-01-01 00:00:00.000017546,1755597808624,21.53,-41.54,-10.47,,,,,,34.48275862068966,-0.368,-0.625,0.687
1970-01-01 00:00:00.000017576,1755597808654,21.55,-41.63,-10.47,,,,,,33.333333333333336,-0.37,-0.626,0.687
1970-01-01 00:00:00.000017606,1755597808683,21.53,-41.67,-10.48,,,,,,33.333333333333336,-0.372,-0.628,0.688
1970-01-01 00:00:00.000017665,1755597808743,21.51,-41.76,-10.45,,,,,,33.333333333333336,-0.37,-0.628,0.689
1970-01-01 00:00:00.000017694,1755597808772,21.52,-41.76,-10.45,,,,,,34.48275862068966,-0.369,-0.628,0.69
1970-01-01 00:00:00.000017724,1755597808801,21.48,-41.74,-10.43,,,,,,33.333333333333336,-0.368,-0.628,0.69
1970-01-01 00:00:00.000017812,1755597808890,21.45,-41.73,-10.36,,,,,,34.48275862068966,-0.369,-0.63,0.688
1970-01-01 00:00:00.000017842,1755597808920,21.46,-41.73,-10.33,,,,,,33.333333333333336,-0.367,-0.628,0.688
1970-01-01 00:00:00.000017901,1755597808980,21.47,-41.79,-10.33,,,,,,34.48275862068966,-0.365,-0.626,0.688
1970-01-01 00:00:00.000017921,1755597808999,21.46,-41.82,-10.34,,,,,,50.0,-0.365,-0.625,0.688
1970-01-01 00:00:00.000017951,1755597809029,21.45,-41.86,-10.36,,,,,,33.333333333333336,-0.365,-0.626,0.688
1970-01-01 00:00:00.000017980,1755597809058,21.51,-41.89,-10.34,,,,,,34.48275862068966,-0.367,-0.629,0.689
1970-01-01 00:00:00.000018010,1755597809088,21.55,-41.92,-10.31,,,,,,33.333333333333336,-0.368,-0.63,0.688
1970-01-01 00:00:00.000018040,1755597809117,21.55,-41.97,-10.3,,,,,,33.333333333333336,-0.368,-0.631,0.687
1970-01-01 00:00:00.000018069,1755597809147,21.55,-42.0,-10.3,,,,,,34.48275862068966,-0.367,-0.629,0.686
1970-01-01 00:00:00.000018128,1755597809206,21.59,-42.03,-10.32,,,,,,34.48275862068966,-0.365,-0.629,0.687
1970-01-01 00:00:00.000018158,1755597809236,21.6,-42.08,-10.34,,,,,,33.333333333333336,-0.366,-0.629,0.684
1970-01-01 00:00:00.000018188,1755597809265,21.61,-42.15,-10.35,,,,,,33.333333333333336,-0.367,-0.63,0.682
1970-01-01 00:00:00.000018217,1755597809295,21.63,-42.2,-10.35,,,,,,34.48275862068966,-0.369,-0.632,0.685
1970-01-01 00:00:00.000018247,1755597809324,21.68,-42.24,-10.34,,,,,,33.333333333333336,-0.369,-0.633,0.685
1970-01-01 00:00:00.000018276,1755597809354,21.79,-42.31,-10.3,,,,,,34.48275862068966,-0.37,-0.634,0.683
1970-01-01 00:00:00.000018306,1755597809383,21.89,-42.42,-10.26,,,,,,33.333333333333336,-0.37,-0.633,0.681
1970-01-01 00:00:00.000018335,1755597809413,22.05,-42.55,-10.22,,,,,,34.48275862068966,-0.369,-0.63,0.679
1970-01-01 00:00:00.000018365,1755597809443,22.16,-42.7,-10.23,,,,,,33.333333333333336,-0.372,-0.632,0.677
1970-01-01 00:00:00.000018395,1755597809472,22.15,-42.77,-10.23,,,,,,33.333333333333336,-0.375,-0.635,0.676
1970-01-01 00:00:00.000018424,1755597809502,22.16,-42.85,-10.23,,,,,,34.48275862068966,-0.376,-0.637,0.674
1970-01-01 00:00:00.000018454,1755597809531,22.27,-42.97,-10.19,,,,,,33.333333333333336,-0.377,-0.639,0.672
1970-01-01 00:00:00.000018483,1755597809561,22.34,-43.07,-10.14,,,,,,34.48275862068966,-0.378,-0.641,0.671
1970-01-01 00:00:00.000018513,1755597809590,22.31,-43.15,-10.14,,,,,,33.333333333333336,-0.378,-0.64,0.668
1970-01-01 00:00:00.000018542,1755597809620,22.3,-43.28,-10.14,,,,,,34.48275862068966,-0.378,-0.64,0.665
1970-01-01 00:00:00.000018572,1755597809649,22.33,-43.42,-10.12,,,,,,33.333333333333336,-0.379,-0.642,0.666
1970-01-01 00:00:00.000018601,1755597809679,22.38,-43.5,-10.11,,,,,,34.48275862068966,-0.38,-0.644,0.668
1970-01-01 00:00:00.000018631,1755597809708,22.45,-43.45,-10.06,,,,,,33.333333333333336,-0.38,-0.644,0.667
1970-01-01 00:00:00.000018660,1755597809738,22.47,-43.52,-10.06,,,,,,34.48275862068966,-0.381,-0.644,0.663
1970-01-01 00:00:00.000018690,1755597809767,22.5,-43.64,-10.04,,,,,,33.333333333333336,-0.381,-0.644,0.659
1970-01-01 00:00:00.000018719,1755597809797,22.59,-43.68,-9.99,,,,,,34.48275862068966,-0.384,-0.646,0.66
1970-01-01 00:00:00.000018749,1755597809826,22.62,-43.65,-9.92,,,,,,33.333333333333336,-0.385,-0.648,0.66
1970-01-01 00:00:00.000018778,1755597809856,22.61,-43.7,-9.9,,,,,,34.48275862068966,-0.383,-0.647,0.659
1970-01-01 00:00:00.000018808,1755597809885,22.66,-43.74,-9.88,,,,,,33.333333333333336,-0.382,-0.645,0.66
1970-01-01 00:00:00.000018837,1755597809915,22.72,-43.78,-9.9,,,,,,34.48275862068966,-0.382,-0.646,0.661
1970-01-01 00:00:00.000018867,1755597809944,22.68,-43.8,-9.94,,,,,,33.333333333333336,-0.383,-0.647,0.66
1970-01-01 00:00:00.000018896,1755597809974,22.71,-43.83,-9.95,,,,,,34.48275862068966,-0.385,-0.648,0.658
1970-01-01 00:00:00.000018926,1755597810003,22.77,-43.85,-9.94,,,,,,33.333333333333336,-0.388,-0.648,0.657
1970-01-01 00:00:00.000018955,1755597810033,22.72,-43.85,-9.96,,,,,,34.48275862068966,-0.387,-0.648,0.656
1970-01-01 00:00:00.000018984,1755597810062,22.69,-43.87,-9.99,,,,,,34.48275862068966,-0.387,-0.648,0.654
1970-01-01 00:00:00.000019014,1755597810091,22.72,-43.93,-9.99,,,,,,33.333333333333336,-0.388,-0.649,0.654
1970-01-01 00:00:00.000019043,1755597810121,22.73,-43.96,-9.99,,,,,,34.48275862068966,-0.389,-0.651,0.656
1970-01-01 00:00:00.000019073,1755597810150,22.71,-43.96,-10.0,,,,,,33.333333333333336,-0.387,-0.65,0.655
1970-01-01 00:00:00.000019102,1755597810180,22.73,-43.97,-10.01,,,,,,34.48275862068966,-0.386,-0.649,0.654
1970-01-01 00:00:00.000019132,1755597810209,22.74,-44.02,-10.03,,,,,,33.333333333333336,-0.386,-0.65,0.655
1970-01-01 00:00:00.000019161,1755597810239,22.77,-44.07,-10.05,,,,,,34.48275862068966,-0.386,-0.651,0.655
1970-01-01 00:00:00.000019191,1755597810269,22.77,-44.06,-10.06,,,,,,33.333333333333336,-0.387,-0.652,0.653
1970-01-01 00:00:00.000019250,1755597810327,22.74,-44.09,-10.08,,,,,,33.333333333333336,-0.388,-0.652,0.653
1970-01-01 00:00:00.000019279,1755597810357,22.74,-44.11,-10.08,,,,,,34.48275862068966,-0.388,-0.652,0.652
1970-01-01 00:00:00.000019309,1755597810386,22.73,-44.12,-10.08,,,,,,33.333333333333336,-0.388,-0.653,0.652
1970-01-01 00:00:00.000019338,1755597810416,22.75,-44.12,-10.07,,,,,,34.48275862068966,-0.388,-0.654,0.653
1970-01-01 00:00:00.000019368,1755597810445,22.72,-44.09,-10.08,,,,,,33.333333333333336,-0.386,-0.653,0.653
1970-01-01 00:00:00.000019397,1755597810475,22.67,-44.04,-10.09,,,,,,34.48275862068966,-0.385,-0.654,0.652
1970-01-01 00:00:00.000019427,1755597810504,22.65,-44.05,-10.1,,,,,,33.333333333333336,-0.386,-0.654,0.65
1970-01-01 00:00:00.000019456,1755597810534,22.64,-44.08,-10.11,,,,,,34.48275862068966,-0.386,-0.653,0.65
1970-01-01 00:00:00.000019486,1755597810563,22.61,-44.11,-10.11,,,,,,33.333333333333336,-0.388,-0.654,0.652
1970-01-01 00:00:00.000019544,1755597810622,22.62,-44.14,-10.07,,,,,,34.48275862068966,-0.387,-0.653,0.652
1970-01-01 00:00:00.000019603,1755597810681,22.64,-44.12,-10.04,,,,,,34.48275862068966,-0.384,-0.653,0.653
1970-01-01 00:00:00.000019633,1755597810710,22.63,-44.12,-10.03,,,,,,33.333333333333336,-0.385,-0.653,0.653
1970-01-01 00:00:00.000019662,1755597810740,22.65,-44.13,-10.0,,,,,,34.48275862068966,-0.386,-0.653,0.653
1970-01-01 00:00:00.000019692,1755597810769,22.64,-44.13,-9.99,,,,,,33.333333333333336,-0.386,-0.653,0.653
1970-01-01 00:00:00.000019721,1755597810799,22.61,-44.13,-9.98,,,,,,34.48275862068966,-0.385,-0.651,0.653
1970-01-01 00:00:00.000019751,1755597810829,22.64,-44.12,-9.95,,,,,,33.333333333333336,-0.384,-0.65,0.653
1970-01-01 00:00:00.000019780,1755597810858,22.67,-44.14,-9.93,,,,,,34.48275862068966,-0.385,-0.651,0.654
1970-01-01 00:00:00.000019810,1755597810888,22.64,-44.15,-9.95,,,,,,33.333333333333336,-0.386,-0.651,0.654
1970-01-01 00:00:00.000019840,1755597810917,22.62,-44.15,-9.95,,,,,,33.333333333333336,-0.385,-0.65,0.652
1970-01-01 00:00:00.000019869,1755597810947,22.66,-44.16,-9.94,,,,,,34.48275862068966,-0.384,-0.65,0.654
1970-01-01 00:00:00.000019899,1755597810976,22.65,-44.16,-9.96,,,,,,33.333333333333336,-0.384,-0.65,0.655
1970-01-01 00:00:00.000019928,1755597811006,22.61,-44.18,-9.97,,,,,,34.48275862068966,-0.386,-0.651,0.653
1970-01-01 00:00:00.000019958,1755597811035,22.63,-44.19,-9.95,,,,,,33.333333333333336,-0.386,-0.651,0.653
1970-01-01 00:00:00.000019987,1755597811065,22.64,-44.18,-9.95,,,,,,34.48275862068966,-0.385,-0.65,0.653
1970-01-01 00:00:00.000020017,1755597811094,22.66,-44.19,-9.91,,,,,,33.333333333333336,-0.385,-0.65,0.653
1970-01-01 00:00:00.000020046,1755597811124,22.74,-44.23,-9.88,,,,,,34.48275862068966,-0.386,-0.65,0.654
1970-01-01 00:00:00.000020076,1755597811153,22.77,-44.25,-9.86,,,,,,33.333333333333336,-0.387,-0.65,0.655
1970-01-01 00:00:00.000020105,1755597811183,22.75,-44.23,-9.84,,,,,,34.48275862068966,-0.386,-0.649,0.654
1970-01-01 00:00:00.000020135,1755597811212,22.82,-44.27,-9.8,,,,,,33.333333333333336,-0.387,-0.649,0.651
1970-01-01 00:00:00.000020164,1755597811242,22.9,-44.35,-9.77,,,,,,34.48275862068966,-0.39,-0.651,0.652
1970-01-01 00:00:00.000020223,1755597811302,22.87,-44.26,-9.73,,,,,,34.48275862068966,-0.388,-0.65,0.654
1970-01-01 00:00:00.000020243,1755597811321,22.88,-44.27,-9.71,,,,,,50.0,-0.387,-0.649,0.653
1970-01-01 00:00:00.000020273,1755597811351,22.91,-44.27,-9.69,,,,,,33.333333333333336,-0.387,-0.649,0.652
1970-01-01 00:00:00.000020303,1755597811380,22.87,-44.27,-9.7,,,,,,33.333333333333336,-0.389,-0.649,0.654
1970-01-01 00:00:00.000020332,1755597811410,22.85,-44.26,-9.7,,,,,,34.48275862068966,-0.39,-0.649,0.654
1970-01-01 00:00:00.000020362,1755597811439,22.88,-44.23,-9.68,,,,,,33.333333333333336,-0.39,-0.648,0.654
1970-01-01 00:00:00.000020391,1755597811469,22.92,-44.27,-9.68,,,,,,34.48275862068966,-0.39,-0.647,0.654
1970-01-01 00:00:00.000020421,1755597811499,22.91,-44.28,-9.69,,,,,,33.333333333333336,-0.39,-0.647,0.655
1970-01-01 00:00:00.000020451,1755597811528,22.91,-44.27,-9.69,,,,,,33.333333333333336,-0.39,-0.647,0.655
1970-01-01 00:00:00.000020480,1755597811558,22.97,-44.27,-9.68,,,,,,34.48275862068966,-0.39,-0.647,0.655
1970-01-01 00:00:00.000020510,1755597811587,22.98,-44.28,-9.69,,,,,,33.333333333333336,-0.389,-0.645,0.653
1970-01-01 00:00:00.000020539,1755597811617,22.99,-44.34,-9.73,,,,,,34.48275862068966,-0.389,-0.645,0.651
1970-01-01 00:00:00.000020569,1755597811646,23.02,-44.39,-9.75,,,,,,33.333333333333336,-0.391,-0.651,0.652
1970-01-01 00:00:00.000020598,1755597811676,23.05,-44.4,-9.73,,,,,,34.48275862068966,-0.394,-0.655,0.652
1970-01-01 00:00:00.000020628,1755597811705,23.09,-44.41,-9.69,,,,,,33.333333333333336,-0.393,-0.655,0.651
1970-01-01 00:00:00.000020657,1755597811735,23.15,-44.42,-9.66,,,,,,34.48275862068966,-0.393,-0.653,0.65
1970-01-01 00:00:00.000020687,1755597811764,23.14,-44.43,-9.66,,,,,,33.333333333333336,-0.393,-0.652,0.648
1970-01-01 00:00:00.000020716,1755597811794,23.12,-44.44,-9.67,,,,,,34.48275862068966,-0.393,-0.653,0.647
1970-01-01 00:00:00.000020746,1755597811824,23.09,-44.45,-9.67,,,,,,33.333333333333336,-0.394,-0.653,0.648
1970-01-01 00:00:00.000020776,1755597811854,23.08,-44.44,-9.66,,,,,,33.333333333333336,-0.393,-0.653,0.649
1970-01-01 00:00:00.000020805,1755597811883,23.07,-44.43,-9.66,,,,,,34.48275862068966,-0.393,-0.652,0.649
1970-01-01 00:00:00.000020835,1755597811913,23.07,-44.45,-9.66,,,,,,33.333333333333336,-0.394,-0.65,0.648
1970-01-01 00:00:00.000020865,1755597811942,23.04,-44.44,-9.66,,,,,,33.333333333333336,-0.394,-0.651,0.649
1970-01-01 00:00:00.000020894,1755597811972,23.01,-44.45,-9.67,,,,,,34.48275862068966,-0.393,-0.651,0.648
1970-01-01 00:00:00.000020924,1755597812001,23.0,-44.5,-9.67,,,,,,33.333333333333336,-0.393,-0.65,0.647
1970-01-01 00:00:00.000020953,1755597812031,22.99,-44.55,-9.68,,,,,,34.48275862068966,-0.393,-0.651,0.649
1970-01-01 00:00:00.000020983,1755597812060,22.95,-44.55,-9.68,,,,,,33.333333333333336,-0.392,-0.652,0.651
1970-01-01 00:00:00.000021012,1755597812090,22.97,-44.53,-9.66,,,,,,34.48275862068966,-0.392,-0.653,0.652
1970-01-01 00:00:00.000021041,1755597812119,22.98,-44.53,-9.64,,,,,,34.48275862068966,-0.391,-0.652,0.651
1970-01-01 00:00:00.000021100,1755597812178,22.93,-44.51,-9.66,,,,,,34.48275862068966,-0.391,-0.648,0.65
1970-01-01 00:00:00.000021130,1755597812207,22.94,-44.53,-9.67,,,,,,33.333333333333336,-0.392,-0.649,0.651
1970-01-01 00:00:00.000021159,1755597812237,22.92,-44.53,-9.68,,,,,,34.48275862068966,-0.393,-0.651,0.652
1970-01-01 00:00:00.000021189,1755597812267,22.95,-44.54,-9.67,,,,,,33.333333333333336,-0.391,-0.65,0.651
1970-01-01 00:00:00.000021218,1755597812296,22.97,-44.56,-9.67,,,,,,34.48275862068966,-0.39,-0.651,0.649
1970-01-01 00:00:00.000021248,1755597812326,22.94,-44.58,-9.68,,,,,,33.333333333333336,-0.39,-0.652,0.649
1970-01-01 00:00:00.000021298,1755597812376,22.95,-44.59,-9.67,,,,,,50.0,-0.389,-0.653,0.651
1970-01-01 00:00:00.000021327,1755597812405,22.96,-44.59,-9.67,,,,,,34.48275862068966,-0.39,-0.654,0.652
1970-01-01 00:00:00.000021357,1755597812435,22.94,-44.6,-9.68,,,,,,33.333333333333336,-0.392,-0.654,0.651
1970-01-01 00:00:00.000021386,1755597812464,22.94,-44.6,-9.67,,,,,,34.48275862068966,-0.392,-0.653,0.649
1970-01-01 00:00:00.000021416,1755597812494,22.94,-44.62,-9.66,,,,,,33.333333333333336,-0.391,-0.653,0.651
1970-01-01 00:00:00.000021446,1755597812523,22.95,-44.59,-9.64,,,,,,33.333333333333336,-0.39,-0.652,0.652
1970-01-01 00:00:00.000021475,1755597812553,22.93,-44.6,-9.65,,,,,,34.48275862068966,-0.39,-0.651,0.652
1970-01-01 00:00:00.000021504,1755597812582,22.93,-44.6,-9.66,,,,,,34.48275862068966,-0.39,-0.652,0.652
1970-01-01 00:00:00.000021534,1755597812612,22.96,-44.57,-9.64,,,,,,33.333333333333336,-0.39,-0.653,0.651
1970-01-01 00:00:00.000021563,1755597812641,22.98,-44.57,-9.63,,,,,,34.48275862068966,-0.391,-0.654,0.651
1970-01-01 00:00:00.000021593,1755597812670,22.95,-44.55,-9.63,,,,,,33.333333333333336,-0.391,-0.654,0.65
1970-01-01 00:00:00.000021622,1755597812700,22.92,-44.55,-9.63,,,,,,34.48275862068966,-0.391,-0.653,0.649
1970-01-01 00:00:00.000021652,1755597812729,22.89,-44.54,-9.63,,,,,,33.333333333333336,-0.39,-0.651,0.65
1970-01-01 00:00:00.000021711,1755597812789,22.79,-44.48,-9.62,,,,,,33.333333333333336,-0.39,-0.651,0.652
1970-01-01 00:00:00.000021740,1755597812818,22.76,-44.46,-9.6,,,,,,34.48275862068966,-0.388,-0.649,0.651
1970-01-01 00:00:00.000021770,1755597812848,22.81,-44.52,-9.59,,,,,,33.333333333333336,-0.387,-0.648,0.653
1970-01-01 00:00:00.000021799,1755597812877,22.82,-44.5,-9.59,,,,,,34.48275862068966,-0.388,-0.649,0.654
1970-01-01 00:00:00.000021858,1755597812936,22.79,-44.52,-9.59,,,,,,34.48275862068966,-0.388,-0.65,0.655
1970-01-01 00:00:00.000021888,1755597812965,22.82,-44.51,-9.57,,,,,,33.333333333333336,-0.388,-0.651,0.655
1970-01-01 00:00:00.000021917,1755597812995,22.81,-44.48,-9.57,,,,,,34.48275862068966,-0.388,-0.651,0.655
1970-01-01 00:00:00.000021947,1755597813024,22.78,-44.47,-9.58,,,,,,33.333333333333336,-0.387,-0.65,0.654
1970-01-01 00:00:00.000021976,1755597813054,22.74,-44.47,-9.61,,,,,,34.48275862068966,-0.387,-0.651,0.655
1970-01-01 00:00:00.000022006,1755597813083,22.73,-44.47,-9.63,,,,,,33.333333333333336,-0.387,-0.653,0.656
1970-01-01 00:00:00.000022035,1755597813113,22.79,-44.45,-9.59,,,,,,34.48275862068966,-0.389,-0.654,0.656
1970-01-01 00:00:00.000022065,1755597813142,22.83,-44.43,-9.55,,,,,,33.333333333333336,-0.389,-0.65,0.653
1970-01-01 00:00:00.000022094,1755597813172,22.81,-44.42,-9.55,,,,,,34.48275862068966,-0.387,-0.647,0.652
1970-01-01 00:00:00.000022124,1755597813201,22.78,-44.44,-9.57,,,,,,33.333333333333336,-0.386,-0.646,0.652
1970-01-01 00:00:00.000022153,1755597813231,22.79,-44.44,-9.58,,,,,,34.48275862068966,-0.387,-0.649,0.656
1970-01-01 00:00:00.000022183,1755597813261,22.8,-44.37,-9.56,,,,,,33.333333333333336,-0.388,-0.651,0.659
1970-01-01 00:00:00.000022213,1755597813290,22.81,-44.3,-9.53,,,,,,33.333333333333336,-0.387,-0.651,0.657
1970-01-01 00:00:00.000022242,1755597813320,22.76,-44.25,-9.53,,,,,,34.48275862068966,-0.387,-0.65,0.656
1970-01-01 00:00:00.000022272,1755597813349,22.7,-44.2,-9.53,,,,,,33.333333333333336,-0.387,-0.649,0.654
1970-01-01 00:00:00.000022301,1755597813379,22.71,-44.21,-9.52,,,,,,34.48275862068966,-0.387,-0.649,0.655
1970-01-01 00:00:00.000022331,1755597813408,22.75,-44.2,-9.49,,,,,,33.333333333333336,-0.387,-0.649,0.658
1970-01-01 00:00:00.000022360,1755597813438,22.75,-44.16,-9.49,,,,,,34.48275862068966,-0.386,-0.646,0.658
1970-01-01 00:00:00.000022390,1755597813467,22.75,-44.15,-9.51,,,,,,33.333333333333336,-0.386,-0.644,0.656
1970-01-01 00:00:00.000022419,1755597813497,22.78,-44.18,-9.51,,,,,,34.48275862068966,-0.387,-0.645,0.658
1970-01-01 00:00:00.000022448,1755597813526,22.79,-44.17,-9.52,,,,,,34.48275862068966,-0.388,-0.646,0.66
1970-01-01 00:00:00.000022478,1755597813556,22.79,-44.14,-9.53,,,,,,33.333333333333336,-0.387,-0.645,0.659
1970-01-01 00:00:00.000022508,1755597813585,22.81,-44.16,-9.54,,,,,,33.333333333333336,-0.385,-0.644,0.656
1970-01-01 00:00:00.000022537,1755597813615,22.83,-44.18,-9.57,,,,,,34.48275862068966,-0.386,-0.646,0.657
1970-01-01 00:00:00.000022567,1755597813644,22.82,-44.15,-9.58,,,,,,33.333333333333336,-0.386,-0.648,0.658
1970-01-01 00:00:00.000022596,1755597813674,22.83,-44.13,-9.57,,,,,,34.48275862068966,-0.387,-0.648,0.657
1970-01-01 00:00:00.000022626,1755597813703,22.84,-44.15,-9.57,,,,,,33.333333333333336,-0.387,-0.646,0.656
1970-01-01 00:00:00.000022685,1755597813762,22.84,-44.11,-9.56,,,,,,33.333333333333336,-0.387,-0.645,0.661
1970-01-01 00:00:00.000022714,1755597813792,22.84,-44.08,-9.58,,,,,,34.48275862068966,-0.388,-0.646,0.661
1970-01-01 00:00:00.000022744,1755597813821,22.84,-44.04,-9.55,,,,,,33.333333333333336,-0.387,-0.646,0.66
1970-01-01 00:00:00.000022773,1755597813851,22.89,-44.01,-9.5,,,,,,34.48275862068966,-0.388,-0.647,0.66
1970-01-01 00:00:00.000022803,1755597813880,22.94,-44.0,-9.48,,,,,,33.333333333333336,-0.386,-0.646,0.659
1970-01-01 00:00:00.000022832,1755597813910,22.91,-43.99,-9.49,,,,,,34.48275862068966,-0.386,-0.644,0.658
1970-01-01 00:00:00.000022862,1755597813939,22.94,-43.97,-9.48,,,,,,33.333333333333336,-0.387,-0.644,0.657
1970-01-01 00:00:00.000022891,1755597813969,22.95,-43.98,-9.48,,,,,,34.48275862068966,-0.389,-0.645,0.659
1970-01-01 00:00:00.000022950,1755597814028,22.99,-43.97,-9.45,,,,,,34.48275862068966,-0.392,-0.645,0.659
1970-01-01 00:00:00.000022980,1755597814058,23.0,-43.96,-9.42,,,,,,33.333333333333336,-0.391,-0.644,0.659
1970-01-01 00:00:00.000023009,1755597814087,23.0,-43.96,-9.41,,,,,,34.48275862068966,-0.389,-0.644,0.659
1970-01-01 00:00:00.000023039,1755597814117,23.0,-43.97,-9.41,,,,,,33.333333333333336,-0.39,-0.643,0.66
1970-01-01 00:00:00.000023068,1755597814147,22.99,-43.97,-9.4,,,,,,34.48275862068966,-0.389,-0.643,0.66
1970-01-01 00:00:00.000023098,1755597814176,23.01,-43.96,-9.39,,,,,,33.333333333333336,-0.388,-0.643,0.661
1970-01-01 00:00:00.000023127,1755597814205,23.03,-43.94,-9.4,,,,,,34.48275862068966,-0.388,-0.642,0.66
1970-01-01 00:00:00.000023157,1755597814234,23.04,-43.95,-9.4,,,,,,33.333333333333336,-0.388,-0.641,0.658
1970-01-01 00:00:00.000023186,1755597814264,23.09,-43.97,-9.4,,,,,,34.48275862068966,-0.39,-0.644,0.661
1970-01-01 00:00:00.000023216,1755597814294,23.11,-43.94,-9.39,,,,,,33.333333333333336,-0.391,-0.644,0.662
1970-01-01 00:00:00.000023246,1755597814324,23.11,-43.9,-9.38,,,,,,33.333333333333336,-0.391,-0.643,0.66
1970-01-01 00:00:00.000023275,1755597814353,23.13,-43.89,-9.37,,,,,,34.48275862068966,-0.391,-0.642,0.658
1970-01-01 00:00:00.000023304,1755597814382,23.14,-43.92,-9.37,,,,,,34.48275862068966,-0.392,-0.642,0.658
1970-01-01 00:00:00.000023334,1755597814412,23.13,-43.93,-9.37,,,,,,33.333333333333336,-0.392,-0.642,0.659
1970-01-01 00:00:00.000023363,1755597814441,23.13,-43.95,-9.38,,,,,,34.48275862068966,-0.394,-0.644,0.66
1970-01-01 00:00:00.000023393,1755597814470,23.12,-43.93,-9.36,,,,,,33.333333333333336,-0.394,-0.644,0.66
1970-01-01 00:00:00.000023422,1755597814500,23.14,-43.93,-9.34,,,,,,34.48275862068966,-0.392,-0.642,0.659
1970-01-01 00:00:00.000023452,1755597814529,23.17,-43.94,-9.35,,,,,,33.333333333333336,-0.392,-0.641,0.66
1970-01-01 00:00:00.000023481,1755597814559,23.14,-43.92,-9.37,,,,,,34.48275862068966,-0.393,-0.642,0.66
1970-01-01 00:00:00.000023511,1755597814589,23.14,-43.89,-9.36,,,,,,33.333333333333336,-0.394,-0.642,0.66
1970-01-01 00:00:00.000023540,1755597814618,23.18,-43.89,-9.35,,,,,,34.48275862068966,-0.392,-0.641,0.658
1970-01-01 00:00:00.000023570,1755597814647,23.18,-43.94,-9.35,,,,,,33.333333333333336,-0.391,-0.641,0.659
1970-01-01 00:00:00.000023599,1755597814677,23.19,-43.95,-9.35,,,,,,34.48275862068966,-0.392,-0.641,0.659
1970-01-01 00:00:00.000023629,1755597814707,23.22,-43.97,-9.35,,,,,,33.333333333333336,-0.393,-0.64,0.658
1970-01-01 00:00:00.000023659,1755597814736,23.24,-44.0,-9.35,,,,,,33.333333333333336,-0.394,-0.642,0.659
1970-01-01 00:00:00.000023688,1755597814766,23.25,-44.0,-9.34,,,,,,34.48275862068966,-0.395,-0.644,0.66
1970-01-01 00:00:00.000023718,1755597814795,23.28,-43.98,-9.31,,,,,,33.333333333333336,-0.395,-0.644,0.659
1970-01-01 00:00:00.000023747,1755597814825,23.3,-43.98,-9.29,,,,,,34.48275862068966,-0.394,-0.644,0.658
1970-01-01 00:00:00.000023777,1755597814854,23.29,-44.0,-9.29,,,,,,33.333333333333336,-0.395,-0.643,0.657
1970-01-01 00:00:00.000023806,1755597814884,23.28,-44.0,-9.29,,,,,,34.48275862068966,-0.395,-0.642,0.658
1970-01-01 00:00:00.000023836,1755597814913,23.29,-44.0,-9.29,,,,,,33.333333333333336,-0.395,-0.642,0.659
1970-01-01 00:00:00.000023865,1755597814943,23.29,-44.0,-9.3,,,,,,34.48275862068966,-0.395,-0.643,0.659
1970-01-01 00:00:00.000023895,1755597814972,23.28,-43.97,-9.29,,,,,,33.333333333333336,-0.395,-0.642,0.659
1970-01-01 00:00:00.000023924,1755597815002,23.27,-43.96,-9.29,,,,,,34.48275862068966,-0.395,-0.641,0.658
1970-01-01 00:00:00.000023953,1755597815031,23.27,-43.98,-9.3,,,,,,34.48275862068966,-0.395,-0.642,0.657
1970-01-01 00:00:00.000024012,1755597815090,23.29,-43.98,-9.29,,,,,,34.48275862068966,-0.395,-0.642,0.659
1970-01-01 00:00:00.000024071,1755597815149,23.29,-43.98,-9.29,,,,,,34.48275862068966,-0.393,-0.642,0.658
1970-01-01 00:00:00.000024101,1755597815179,23.26,-43.98,-9.31,,,,,,33.333333333333336,-0.394,-0.642,0.658
1970-01-01 00:00:00.000024131,1755597815209,23.26,-43.99,-9.3,,,,,,33.333333333333336,-0.395,-0.642,0.658
1970-01-01 00:00:00.000024160,1755597815238,23.28,-43.98,-9.28,,,,,,34.48275862068966,-0.395,-0.643,0.659
1970-01-01 00:00:00.000024190,1755597815268,23.25,-43.96,-9.29,,,,,,33.333333333333336,-0.394,-0.643,0.658
1970-01-01 00:00:00.000024219,1755597815297,23.25,-43.98,-9.29,,,,,,34.48275862068966,-0.394,-0.644,0.658
1970-01-01 00:00:00.000024249,1755597815327,23.27,-43.98,-9.28,,,,,,33.333333333333336,-0.394,-0.643,0.658
1970-01-01 00:00:00.000024278,1755597815356,23.25,-43.99,-9.29,,,,,,34.48275862068966,-0.393,-0.643,0.658
1970-01-01 00:00:00.000024308,1755597815385,23.26,-43.99,-9.28,,,,,,33.333333333333336,-0.392,-0.642,0.659
1970-01-01 00:00:00.000024337,1755597815415,23.29,-43.96,-9.28,,,,,,34.48275862068966,-0.392,-0.643,0.659
1970-01-01 00:00:00.000024367,1755597815444,23.27,-43.95,-9.28,,,,,,33.333333333333336,-0.393,-0.642,0.657
1970-01-01 00:00:00.000024396,1755597815474,23.27,-43.97,-9.29,,,,,,34.48275862068966,-0.395,-0.642,0.658
1970-01-01 00:00:00.000024426,1755597815504,23.28,-43.97,-9.29,,,,,,33.333333333333336,-0.395,-0.642,0.658
1970-01-01 00:00:00.000024455,1755597815533,23.27,-43.96,-9.28,,,,,,34.48275862068966,-0.395,-0.643,0.657
1970-01-01 00:00:00.000024485,1755597815562,23.27,-43.96,-9.29,,,,,,33.333333333333336,-0.394,-0.642,0.656
1970-01-01 00:00:00.000024514,1755597815592,23.26,-44.0,-9.3,,,,,,34.48275862068966,-0.394,-0.641,0.655
1970-01-01 00:00:00.000024544,1755597815622,23.24,-44.04,-9.31,,,,,,33.333333333333336,-0.395,-0.641,0.657
1970-01-01 00:00:00.000024573,1755597815651,23.26,-44.03,-9.31,,,,,,34.48275862068966,-0.395,-0.643,0.658
1970-01-01 00:00:00.000024603,1755597815681,23.25,-44.01,-9.3,,,,,,33.333333333333336,-0.394,-0.643,0.656
1970-01-01 00:00:00.000024633,1755597815710,23.24,-44.04,-9.29,,,,,,33.333333333333336,-0.394,-0.643,0.656
1970-01-01 00:00:00.000024662,1755597815741,23.23,-44.06,-9.3,,,,,,34.48275862068966,-0.394,-0.643,0.656
1970-01-01 00:00:00.000024683,1755597815760,23.2,-44.05,-9.31,,,,,,47.61904761904762,-0.393,-0.642,0.658
1970-01-01 00:00:00.000024712,1755597815790,23.19,-44.06,-9.31,,,,,,34.48275862068966,-0.393,-0.642,0.659
1970-01-01 00:00:00.000024742,1755597815819,23.2,-44.05,-9.31,,,,,,33.333333333333336,-0.393,-0.642,0.656
1970-01-01 00:00:00.000024771,1755597815849,23.18,-44.08,-9.31,,,,,,34.48275862068966,-0.392,-0.643,0.655
1970-01-01 00:00:00.000024801,1755597815879,23.17,-44.08,-9.3,,,,,,33.333333333333336,-0.391,-0.646,0.658
1970-01-01 00:00:00.000024830,1755597815908,23.22,-44.07,-9.28,,,,,,34.48275862068966,-0.391,-0.646,0.657
1970-01-01 00:00:00.000024890,1755597815967,23.18,-44.1,-9.3,,,,,,33.333333333333336,-0.392,-0.643,0.654
1970-01-01 00:00:00.000024919,1755597815997,23.19,-44.12,-9.3,,,,,,34.48275862068966,-0.394,-0.643,0.655
1970-01-01 00:00:00.000024949,1755597816026,23.19,-44.12,-9.29,,,,,,33.333333333333336,-0.394,-0.645,0.658
1970-01-01 00:00:00.000024978,1755597816056,23.18,-44.11,-9.28,,,,,,34.48275862068966,-0.392,-0.645,0.657
1970-01-01 00:00:00.000025008,1755597816086,23.21,-44.1,-9.26,,,,,,33.333333333333336,-0.391,-0.643,0.654
1970-01-01 00:00:00.000025037,1755597816115,23.2,-44.13,-9.27,,,,,,34.48275862068966,-0.391,-0.643,0.653
1970-01-01 00:00:00.000025096,1755597816174,23.16,-44.1,-9.29,,,,,,34.48275862068966,-0.393,-0.645,0.655
1970-01-01 00:00:00.000025126,1755597816204,23.18,-44.09,-9.27,,,,919.0,,33.333333333333336,-0.393,-0.644,0.654
