timestamp_ms,recv_timestamp_ms,pitch,roll,yaw,flex1,flex2,flex3,flex4,flex5,sampling_hz,accel_x,accel_y,accel_z
1970-01-01 00:00:00.000051591,1755597843128,23.35,-44.02,-6.38,765.0,769.0,851.0,914.0,869.0,33.333333333333336,-0.396,-0.642,0.658
1970-01-01 00:00:00.000051620,1755597843130,23.31,-44.02,-6.39,,,,,,34.48275862068966,-0.396,-0.642,0.656
1970-01-01 00:00:00.000051650,1755597843132,23.3,-44.05,-6.37,,,,,,33.333333333333336,-0.396,-0.642,0.655
1970-01-01 00:00:00.000051679,1755597843134,23.31,-44.06,-6.36,,,,,,34.48275862068966,-0.396,-0.641,0.659
1970-01-01 00:00:00.000051709,1755597843136,23.31,-44.03,-6.34,,,,,,33.333333333333336,-0.394,-0.642,0.661
1970-01-01 00:00:00.000051738,1755597843138,23.32,-44.01,-6.33,,,,,,34.48275862068966,-0.392,-0.64,0.659
1970-01-01 00:00:00.000051768,1755597843140,23.32,-44.04,-6.36,,,,,,33.333333333333336,-0.392,-0.639,0.657
1970-01-01 00:00:00.000051797,1755597843142,23.3,-44.07,-6.39,,,,,,34.48275862068966,-0.395,-0.64,0.657
1970-01-01 00:00:00.000051827,1755597843144,23.31,-44.06,-6.38,,,,,,33.333333333333336,-0.397,-0.644,0.659
1970-01-01 00:00:00.000051856,1755597843146,23.34,-44.05,-6.34,,,,,,34.48275862068966,-0.397,-0.644,0.658
1970-01-01 00:00:00.000051886,1755597843148,23.34,-44.03,-6.33,,,,,,33.333333333333336,-0.395,-0.643,0.658
1970-01-01 00:00:00.000051915,1755597843150,23.35,-44.03,-6.33,,,,,,34.48275862068966,-0.393,-0.642,0.657
1970-01-01 00:00:00.000051945,1755597843153,23.33,-44.04,-6.34,,,,,,33.333333333333336,-0.393,-0.641,0.658
1970-01-01 00:00:00.000051975,1755597843154,23.31,-44.04,-6.35,,,,,,33.333333333333336,-0.394,-0.641,0.659
1970-01-01 00:00:00.000052004,1755597843156,23.33,-44.02,-6.33,,,,,,34.48275862068966,-0.395,-0.642,0.659
1970-01-01 00:00:00.000052034,1755597843158,23.33,-44.02,-6.33,,,,,,33.333333333333336,-0.394,-0.641,0.657
1970-01-01 00:00:00.000052063,1755597843161,23.34,-44.05,-6.34,,,,,,34.48275862068966,-0.393,-0.641,0.658
1970-01-01 00:00:00.000052122,1755597843201,23.33,-44.06,-6.36,,,,,,34.48275862068966,-0.393,-0.642,0.66
1970-01-01 00:00:00.000052152,1755597843231,23.35,-44.07,-6.37,,,,,,33.333333333333336,-0.394,-0.642,0.659
1970-01-01 00:00:00.000052181,1755597843260,23.35,-44.05,-6.38,,,,,,34.48275862068966,-0.395,-0.642,0.659
1970-01-01 00:00:00.000052211,1755597843289,23.33,-44.06,-6.39,,,,,,33.333333333333336,-0.396,-0.644,0.658
1970-01-01 00:00:00.000052240,1755597843319,23.36,-44.07,-6.36,,,,,,34.48275862068966,-0.395,-0.644,0.657
1970-01-01 00:00:00.000052270,1755597843348,23.36,-44.08,-6.35,,,,,,33.333333333333336,-0.393,-0.643,0.659
1970-01-01 00:00:00.000052299,1755597843378,23.31,-44.08,-6.39,,,,,,34.48275862068966,-0.391,-0.643,0.66
1970-01-01 00:00:00.000052329,1755597843408,23.32,-44.09,-6.39,,,,,,33.333333333333336,-0.392,-0.644,0.659
1970-01-01 00:00:00.000052359,1755597843437,23.35,-44.08,-6.37,,,,,,33.333333333333336,-0.392,-0.643,0.66
1970-01-01 00:00:00.000052388,1755597843467,23.37,-44.06,-6.38,,,,,,34.48275862068966,-0.39,-0.642,0.662
1970-01-01 00:00:00.000052418,1755597843496,23.33,-44.02,-6.43,,,,,,33.333333333333336,-0.393,-0.642,0.658
1970-01-01 00:00:00.000052447,1755597843526,23.34,-44.04,-6.42,,,,,,34.48275862068966,-0.399,-0.643,0.653
1970-01-01 00:00:00.000052477,1755597843556,23.35,-44.08,-6.38,,,,,,33.333333333333336,-0.398,-0.644,0.656
1970-01-01 00:00:00.000052497,1755597843576,23.36,-44.09,-6.35,,,,,,50.0,-0.394,-0.643,0.659
1970-01-01 00:00:00.000052527,1755597843605,23.34,-44.08,-6.35,,,,,,33.333333333333336,-0.39,-0.641,0.659
1970-01-01 00:00:00.000052556,1755597843635,23.32,-44.09,-6.38,,,,,,34.48275862068966,-0.389,-0.64,0.662
1970-01-01 00:00:00.000052586,1755597843664,23.33,-44.08,-6.41,,,,,,33.333333333333336,-0.391,-0.641,0.662
1970-01-01 00:00:00.000052645,1755597843723,23.34,-44.08,-6.41,,,,,,33.333333333333336,-0.395,-0.643,0.656
1970-01-01 00:00:00.000052674,1755597843753,23.35,-44.09,-6.38,,,,,,34.48275862068966,-0.393,-0.642,0.658
1970-01-01 00:00:00.000052704,1755597843782,23.35,-44.08,-6.39,,,,,,33.333333333333336,-0.391,-0.642,0.66
1970-01-01 00:00:00.000052733,1755597843812,23.33,-44.08,-6.42,,,,,,34.48275862068966,-0.39,-0.642,0.66
1970-01-01 00:00:00.000052763,1755597843841,23.32,-44.07,-6.43,,,,,,33.333333333333336,-0.392,-0.642,0.659
1970-01-01 00:00:00.000052792,1755597843871,23.35,-44.07,-6.41,,,,,,34.48275862068966,-0.395,-0.643,0.657
1970-01-01 00:00:00.000052822,1755597843900,23.33,-44.09,-6.41,,,,,,33.333333333333336,-0.396,-0.643,0.656
1970-01-01 00:00:00.000052851,1755597843930,23.31,-44.12,-6.41,,,,,,34.48275862068966,-0.395,-0.643,0.656
1970-01-01 00:00:00.000052881,1755597843959,23.31,-44.11,-6.4,,,,,,33.333333333333336,-0.392,-0.643,0.659
1970-01-01 00:00:00.000052910,1755597843989,23.32,-44.09,-6.4,,,,,,34.48275862068966,-0.391,-0.644,0.661
1970-01-01 00:00:00.000052940,1755597844018,23.31,-44.06,-6.41,,,,,,33.333333333333336,-0.392,-0.644,0.658
1970-01-01 00:00:00.000052969,1755597844048,23.3,-44.08,-6.41,,,,,,34.48275862068966,-0.393,-0.643,0.657
1970-01-01 00:00:00.000052999,1755597844078,23.31,-44.09,-6.4,,,,,,33.333333333333336,-0.394,-0.644,0.659
1970-01-01 00:00:00.000053029,1755597844107,23.31,-44.05,-6.38,,,,,,33.333333333333336,-0.393,-0.644,0.659
1970-01-01 00:00:00.000053058,1755597844137,23.33,-44.06,-6.37,,,,,,34.48275862068966,-0.392,-0.643,0.659
1970-01-01 00:00:00.000053088,1755597844167,23.31,-44.08,-6.39,,,,,,33.333333333333336,-0.392,-0.642,0.657
1970-01-01 00:00:00.000053118,1755597844196,23.29,-44.08,-6.4,,,,,,33.333333333333336,-0.393,-0.643,0.658
1970-01-01 00:00:00.000053147,1755597844225,23.3,-44.1,-6.39,,,,,,34.48275862068966,-0.394,-0.644,0.658
1970-01-01 00:00:00.000053177,1755597844255,23.31,-44.12,-6.37,,,,,,33.333333333333336,-0.394,-0.645,0.658
1970-01-01 00:00:00.000053206,1755597844285,23.28,-44.11,-6.37,,,,,,34.48275862068966,-0.394,-0.644,0.659
1970-01-01 00:00:00.000053236,1755597844314,23.28,-44.11,-6.37,,,,,,33.333333333333336,-0.394,-0.644,0.657
1970-01-01 00:00:00.000053265,1755597844344,23.29,-44.14,-6.36,,,,,,34.48275862068966,-0.393,-0.644,0.657
1970-01-01 00:00:00.000053324,1755597844403,23.27,-44.09,-6.35,,,,,,34.48275862068966,-0.391,-0.644,0.661
1970-01-01 00:00:00.000053354,1755597844432,23.26,-44.06,-6.39,,,,,,33.333333333333336,-0.39,-0.642,0.659
1970-01-01 00:00:00.000053383,1755597844462,23.25,-44.05,-6.43,,,,,,34.48275862068966,-0.393,-0.643,0.657
1970-01-01 00:00:00.000053413,1755597844491,23.25,-44.06,-6.43,,,,,,33.333333333333336,-0.396,-0.645,0.656
1970-01-01 00:00:00.000053472,1755597844550,23.23,-44.05,-6.41,,,,,,33.333333333333336,-0.392,-0.644,0.659
1970-01-01 00:00:00.000053501,1755597844580,23.22,-44.05,-6.42,,,,,,34.48275862068966,-0.392,-0.643,0.658
1970-01-01 00:00:00.000053531,1755597844609,23.22,-44.07,-6.42,,,,,,33.333333333333336,-0.392,-0.644,0.658
1970-01-01 00:00:00.000053560,1755597844639,23.24,-44.07,-6.41,,,,,,34.48275862068966,-0.39,-0.644,0.66
1970-01-01 00:00:00.000053590,1755597844669,23.24,-44.05,-6.42,,,,,,33.333333333333336,-0.391,-0.643,0.659
1970-01-01 00:00:00.000053620,1755597844698,23.22,-44.05,-6.43,,,,,,33.333333333333336,-0.392,-0.643,0.657
1970-01-01 00:00:00.000053649,1755597844728,23.23,-44.1,-6.43,,,,,,34.48275862068966,-0.393,-0.643,0.656
1970-01-01 00:00:00.000053679,1755597844757,23.22,-44.13,-6.44,,,,,,33.333333333333336,-0.393,-0.643,0.658
1970-01-01 00:00:00.000053708,1755597844786,23.19,-44.12,-6.45,,,,,,34.48275862068966,-0.391,-0.645,0.66
1970-01-01 00:00:00.000053737,1755597844816,23.22,-44.1,-6.44,,,,,,34.48275862068966,-0.39,-0.646,0.659
1970-01-01 00:00:00.000053767,1755597844845,23.22,-44.1,-6.45,,,,,,33.333333333333336,-0.391,-0.645,0.656
1970-01-01 00:00:00.000053796,1755597844875,23.19,-44.13,-6.45,,,,,,34.48275862068966,-0.393,-0.646,0.655
1970-01-01 00:00:00.000053826,1755597844904,23.2,-44.14,-6.42,,,,,,33.333333333333336,-0.393,-0.645,0.658
1970-01-01 00:00:00.000053855,1755597844934,23.19,-44.14,-6.41,,,,,,34.48275862068966,-0.392,-0.645,0.659
1970-01-01 00:00:00.000053885,1755597844963,23.18,-44.13,-6.39,,,,,,33.333333333333336,-0.39,-0.646,0.659
1970-01-01 00:00:00.000053914,1755597844993,23.18,-44.11,-6.39,,,,,,34.48275862068966,-0.39,-0.646,0.659
1970-01-01 00:00:00.000053973,1755597845052,23.17,-44.11,-6.4,,,,,,34.48275862068966,-0.393,-0.645,0.657
1970-01-01 00:00:00.000054003,1755597845081,23.19,-44.09,-6.38,,,,,,33.333333333333336,-0.393,-0.644,0.656
1970-01-01 00:00:00.000054032,1755597845111,23.16,-44.11,-6.38,,,,,,34.48275862068966,-0.392,-0.644,0.656
1970-01-01 00:00:00.000054062,1755597845140,23.14,-44.12,-6.38,,,,,,33.333333333333336,-0.39,-0.644,0.657
1970-01-01 00:00:00.000054091,1755597845170,23.17,-44.11,-6.37,,,,,,34.48275862068966,-0.39,-0.645,0.659
1970-01-01 00:00:00.000054121,1755597845199,23.17,-44.08,-6.36,,,,,,33.333333333333336,-0.39,-0.644,0.659
1970-01-01 00:00:00.000054150,1755597845229,23.17,-44.06,-6.37,,,,,,34.48275862068966,-0.39,-0.642,0.658
1970-01-01 00:00:00.000054180,1755597845258,23.16,-44.08,-6.38,,,,,,33.333333333333336,-0.391,-0.642,0.655
1970-01-01 00:00:00.000054209,1755597845288,23.18,-44.11,-6.37,,,,,,34.48275862068966,-0.394,-0.644,0.656
1970-01-01 00:00:00.000054239,1755597845317,23.2,-44.09,-6.34,,,,,,33.333333333333336,-0.393,-0.645,0.658
1970-01-01 00:00:00.000054268,1755597845347,23.18,-44.08,-6.34,,,,,,34.48275862068966,-0.392,-0.644,0.657
1970-01-01 00:00:00.000054298,1755597845376,23.18,-44.1,-6.34,,,,,,33.333333333333336,-0.39,-0.642,0.655
1970-01-01 00:00:00.000054327,1755597845406,23.18,-44.12,-6.36,,,,,,34.48275862068966,-0.39,-0.642,0.656
1970-01-01 00:00:00.000054357,1755597845435,23.16,-44.12,-6.39,,,,,,33.333333333333336,-0.391,-0.643,0.656
1970-01-01 00:00:00.000054386,1755597845465,23.16,-44.11,-6.38,,,,,,34.48275862068966,-0.393,-0.645,0.656
1970-01-01 00:00:00.000054416,1755597845495,23.2,-44.13,-6.35,,,,,,33.333333333333336,-0.392,-0.645,0.656
1970-01-01 00:00:00.000054446,1755597845525,23.17,-44.15,-6.36,,,,,,33.333333333333336,-0.391,-0.644,0.656
1970-01-01 00:00:00.000054466,1755597845545,23.14,-44.16,-6.38,,,,,,50.0,-0.388,-0.642,0.656
1970-01-01 00:00:00.000054496,1755597845574,23.16,-44.15,-6.37,,,,,,33.333333333333336,-0.389,-0.644,0.659
1970-01-01 00:00:00.000054525,1755597845604,23.16,-44.14,-6.38,,,,,,34.48275862068966,-0.391,-0.644,0.659
1970-01-01 00:00:00.000054555,1755597845633,23.14,-44.13,-6.37,,,,,,33.333333333333336,-0.392,-0.644,0.658
1970-01-01 00:00:00.000054584,1755597845663,23.16,-44.12,-6.35,,,,,,34.48275862068966,-0.391,-0.645,0.659
1970-01-01 00:00:00.000054614,1755597845692,23.17,-44.11,-6.34,,,,,,33.333333333333336,-0.39,-0.645,0.658
1970-01-01 00:00:00.000054643,1755597845722,23.15,-44.09,-6.34,,,,,,34.48275862068966,-0.39,-0.646,0.658
1970-01-01 00:00:00.000054673,1755597845751,23.14,-44.08,-6.32,,,,,,33.333333333333336,-0.389,-0.646,0.657
1970-01-01 00:00:00.000054732,1755597845810,23.14,-44.07,-6.31,,,,,,33.333333333333336,-0.391,-0.644,0.658
1970-01-01 00:00:00.000054791,1755597845869,23.12,-44.06,-6.3,,,,,,33.333333333333336,-0.391,-0.643,0.658
1970-01-01 00:00:00.000054849,1755597845928,23.13,-44.06,-6.28,,,,,,34.48275862068966,-0.39,-0.646,0.659
1970-01-01 00:00:00.000054879,1755597845957,23.14,-44.04,-6.27,,,,,,33.333333333333336,-0.39,-0.645,0.66
1970-01-01 00:00:00.000054908,1755597845988,23.13,-44.03,-6.27,,,,,,34.48275862068966,-0.391,-0.643,0.657
1970-01-01 00:00:00.000054938,1755597846017,23.12,-44.04,-6.29,,,,,,33.333333333333336,-0.393,-0.642,0.657
1970-01-01 00:00:00.000054968,1755597846047,23.08,-44.04,-6.29,,,,,,33.333333333333336,-0.392,-0.642,0.657
1970-01-01 00:00:00.000054998,1755597846076,23.09,-44.05,-6.28,,,,,,33.333333333333336,-0.391,-0.644,0.659
1970-01-01 00:00:00.000055057,1755597846136,23.02,-43.98,-6.28,,,,,,33.333333333333336,-0.392,-0.646,0.658
1970-01-01 00:00:00.000055116,1755597846194,22.95,-43.88,-6.26,,,,,,33.333333333333336,-0.393,-0.643,0.662
1970-01-01 00:00:00.000055145,1755597846225,22.7,-43.75,-6.32,,,,,,34.48275862068966,-0.392,-0.643,0.662
1970-01-01 00:00:00.000055166,1755597846244,22.57,-43.7,-6.34,,,,,,47.61904761904762,-0.389,-0.64,0.661
1970-01-01 00:00:00.000055195,1755597846274,22.62,-43.72,-6.3,,,,,,34.48275862068966,-0.388,-0.642,0.662
1970-01-01 00:00:00.000055225,1755597846303,22.69,-43.75,-6.26,,,,,,33.333333333333336,-0.386,-0.642,0.662
1970-01-01 00:00:00.000055254,1755597846333,22.69,-43.78,-6.26,,,,,,34.48275862068966,-0.383,-0.639,0.663
1970-01-01 00:00:00.000055284,1755597846362,22.74,-43.81,-6.26,,,,,,33.333333333333336,-0.382,-0.638,0.665
1970-01-01 00:00:00.000055313,1755597846392,22.78,-43.83,-6.29,,,,,,34.48275862068966,-0.383,-0.639,0.667
1970-01-01 00:00:00.000055372,1755597846451,22.77,-43.8,-6.33,,,,,,34.48275862068966,-0.386,-0.641,0.663
1970-01-01 00:00:00.000055402,1755597846480,22.76,-43.78,-6.35,,,,,,33.333333333333336,-0.388,-0.642,0.663
1970-01-01 00:00:00.000055431,1755597846510,22.63,-43.73,-6.39,,,,,,34.48275862068966,-0.387,-0.641,0.661
1970-01-01 00:00:00.000055461,1755597846539,22.6,-43.75,-6.4,,,,,,33.333333333333336,-0.387,-0.641,0.662
1970-01-01 00:00:00.000055490,1755597846569,22.72,-43.78,-6.33,,,,,,34.48275862068966,-0.388,-0.641,0.665
1970-01-01 00:00:00.000055520,1755597846599,22.78,-43.77,-6.29,,,,,,33.333333333333336,-0.387,-0.641,0.665
1970-01-01 00:00:00.000055579,1755597846658,22.77,-43.77,-6.3,,,,,,34.48275862068966,-0.383,-0.641,0.663
1970-01-01 00:00:00.000055638,1755597846717,22.9,-43.78,-6.23,,,,,,34.48275862068966,-0.384,-0.639,0.664
1970-01-01 00:00:00.000055697,1755597846776,22.98,-43.81,-6.21,,,,,,34.48275862068966,-0.389,-0.64,0.663
1970-01-01 00:00:00.000055727,1755597846806,23.0,-43.85,-6.21,,,,,,33.333333333333336,-0.389,-0.64,0.66
1970-01-01 00:00:00.000055757,1755597846835,23.1,-43.89,-6.17,,,,,,33.333333333333336,-0.39,-0.641,0.66
1970-01-01 00:00:00.000055786,1755597846865,23.15,-43.91,-6.16,,,,,,34.48275862068966,-0.389,-0.641,0.661
1970-01-01 00:00:00.000055816,1755597846894,23.1,-43.91,-6.19,,,,,,33.333333333333336,-0.389,-0.641,0.661
1970-01-01 00:00:00.000055845,1755597846924,23.12,-43.91,-6.19,,,,,,34.48275862068966,-0.39,-0.642,0.66
1970-01-01 00:00:00.000055875,1755597846953,23.17,-43.94,-6.16,,,,,,33.333333333333336,-0.391,-0.641,0.661
1970-01-01 00:00:00.000055904,1755597846983,23.17,-43.95,-6.18,,,,,,34.48275862068966,-0.39,-0.64,0.661
1970-01-01 00:00:00.000055934,1755597847013,23.14,-43.94,-6.2,,,,,,33.333333333333336,-0.391,-0.642,0.659
1970-01-01 00:00:00.000055963,1755597847042,23.16,-43.95,-6.19,,,,,,34.48275862068966,-0.393,-0.643,0.659
1970-01-01 00:00:00.000056023,1755597847102,23.2,-43.95,-6.14,,,,,,33.333333333333336,-0.394,-0.643,0.659
1970-01-01 00:00:00.000056053,1755597847131,23.18,-43.94,-6.13,,,,,,33.333333333333336,-0.392,-0.642,0.658
1970-01-01 00:00:00.000056082,1755597847161,23.18,-43.97,-6.13,,,,,,34.48275862068966,-0.393,-0.643,0.66
1970-01-01 00:00:00.000056112,1755597847190,23.19,-43.94,-6.12,,,,,,33.333333333333336,-0.395,-0.644,0.657
1970-01-01 00:00:00.000056141,1755597847219,23.16,-43.93,-6.09,,,,,,34.48275862068966,-0.396,-0.643,0.657
1970-01-01 00:00:00.000056170,1755597847249,23.17,-43.94,-6.07,,,,,,34.48275862068966,-0.395,-0.642,0.658
1970-01-01 00:00:00.000056200,1755597847278,23.2,-43.94,-6.05,,,,,,33.333333333333336,-0.395,-0.642,0.659
1970-01-01 00:00:00.000056229,1755597847308,23.21,-43.95,-6.04,,,,,,34.48275862068966,-0.393,-0.641,0.66
1970-01-01 00:00:00.000056259,1755597847337,23.22,-43.94,-6.03,,,,,,33.333333333333336,-0.392,-0.642,0.66
1970-01-01 00:00:00.000056288,1755597847367,23.25,-43.93,-6.02,,,,,,34.48275862068966,-0.393,-0.642,0.659
1970-01-01 00:00:00.000056318,1755597847396,23.31,-43.96,-6.0,,,,,,33.333333333333336,-0.395,-0.641,0.657
1970-01-01 00:00:00.000056347,1755597847426,23.36,-43.99,-5.97,,,,,,34.48275862068966,-0.397,-0.642,0.658
1970-01-01 00:00:00.000056377,1755597847455,23.35,-43.98,-5.96,,,,,,33.333333333333336,-0.395,-0.64,0.659
1970-01-01 00:00:00.000056406,1755597847485,23.33,-44.02,-5.97,,,,,,34.48275862068966,-0.395,-0.64,0.658
1970-01-01 00:00:00.000056436,1755597847514,23.34,-44.03,-5.97,,,,,,33.333333333333336,-0.396,-0.642,0.658
1970-01-01 00:00:00.000056465,1755597847544,23.32,-44.02,-5.98,,,,,,34.48275862068966,-0.397,-0.643,0.659
1970-01-01 00:00:00.000056495,1755597847574,23.31,-44.0,-5.97,,,,,,33.333333333333336,-0.396,-0.642,0.659
1970-01-01 00:00:00.000056524,1755597847603,23.35,-43.99,-5.95,,,,,,34.48275862068966,-0.397,-0.642,0.657
1970-01-01 00:00:00.000056554,1755597847632,23.33,-44.02,-5.95,,,,,,33.333333333333336,-0.396,-0.64,0.658
1970-01-01 00:00:00.000056583,1755597847662,23.31,-44.04,-5.96,,,,,,34.48275862068966,-0.396,-0.64,0.659
1970-01-01 00:00:00.000056613,1755597847691,23.32,-44.03,-5.96,,,,,,33.333333333333336,-0.396,-0.641,0.66
1970-01-01 00:00:00.000056642,1755597847721,23.33,-44.03,-5.96,,,,,,34.48275862068966,-0.397,-0.643,0.659
1970-01-01 00:00:00.000056672,1755597847750,23.34,-44.03,-5.95,,,,,,33.333333333333336,-0.398,-0.642,0.656
1970-01-01 00:00:00.000056701,1755597847780,23.34,-44.06,-5.94,,,,,,34.48275862068966,-0.398,-0.642,0.654
1970-01-01 00:00:00.000056761,1755597847840,23.33,-44.08,-5.92,,,,,,33.333333333333336,-0.396,-0.644,0.66
1970-01-01 00:00:00.000056781,1755597847859,23.35,-44.07,-5.9,,,,,,50.0,-0.395,-0.644,0.66
1970-01-01 00:00:00.000056810,1755597847889,23.36,-44.07,-5.9,,,,,,34.48275862068966,-0.395,-0.643,0.659
1970-01-01 00:00:00.000056840,1755597847918,23.37,-44.05,-5.92,,,,,,33.333333333333336,-0.394,-0.641,0.657
1970-01-01 00:00:00.000056899,1755597847978,23.34,-44.06,-5.97,,,,,,33.333333333333336,-0.4,-0.643,0.655
1970-01-01 00:00:00.000056919,1755597847997,23.34,-44.06,-5.97,,,,,,50.0,-0.401,-0.645,0.655
1970-01-01 00:00:00.000056948,1755597848027,23.38,-44.06,-5.92,,,,,,34.48275862068966,-0.399,-0.644,0.656
1970-01-01 00:00:00.000056978,1755597848057,23.37,-44.05,-5.94,,,,,,33.333333333333336,-0.396,-0.642,0.656
1970-01-01 00:00:00.000056998,1755597848077,23.32,-44.04,-5.97,,,,,,50.0,-0.396,-0.643,0.656
1970-01-01 00:00:00.000057028,1755597848106,23.35,-44.08,-5.97,,,,,,33.333333333333336,-0.396,-0.643,0.657
1970-01-01 00:00:00.000057087,1755597848165,23.35,-44.08,-5.97,,,,,,33.333333333333336,-0.396,-0.642,0.657
1970-01-01 00:00:00.000057116,1755597848195,23.34,-44.08,-5.98,,,,,,34.48275862068966,-0.396,-0.642,0.655
1970-01-01 00:00:00.000057146,1755597848224,23.37,-44.09,-5.98,,,,,,33.333333333333336,-0.396,-0.642,0.656
1970-01-01 00:00:00.000057175,1755597848254,23.36,-44.1,-6.0,,,,,,34.48275862068966,-0.396,-0.643,0.658
1970-01-01 00:00:00.000057205,1755597848283,23.37,-44.11,-6.01,,,,,,33.333333333333336,-0.396,-0.645,0.656
1970-01-01 00:00:00.000057234,1755597848313,23.4,-44.15,-5.99,,,,,,34.48275862068966,-0.395,-0.644,0.655
1970-01-01 00:00:00.000057264,1755597848342,23.39,-44.16,-5.99,,,,,,33.333333333333336,-0.396,-0.643,0.657
1970-01-01 00:00:00.000057293,1755597848372,23.37,-44.12,-6.0,,,,,,34.48275862068966,-0.395,-0.643,0.658
1970-01-01 00:00:00.000057323,1755597848402,23.39,-44.12,-5.99,,,,,,33.333333333333336,-0.396,-0.643,0.657
1970-01-01 00:00:00.000057352,1755597848431,23.41,-44.13,-5.98,,,,,,34.48275862068966,-0.398,-0.644,0.656
1970-01-01 00:00:00.000057382,1755597848461,23.39,-44.14,-5.97,,,,,,33.333333333333336,-0.397,-0.645,0.655
1970-01-01 00:00:00.000057412,1755597848490,23.38,-44.14,-5.96,,,,,,33.333333333333336,-0.395,-0.644,0.655
1970-01-01 00:00:00.000057441,1755597848520,23.36,-44.15,-5.97,,,,,,34.48275862068966,-0.396,-0.646,0.657
1970-01-01 00:00:00.000057500,1755597848579,23.4,-44.15,-5.94,,,,,,34.48275862068966,-0.396,-0.644,0.656
1970-01-01 00:00:00.000057530,1755597848608,23.36,-44.13,-5.96,,,,,,33.333333333333336,-0.396,-0.643,0.657
1970-01-01 00:00:00.000057559,1755597848638,23.35,-44.12,-5.95,,,,,,34.48275862068966,-0.396,-0.644,0.656
1970-01-01 00:00:00.000057589,1755597848667,23.38,-44.14,-5.95,,,,,,33.333333333333336,-0.395,-0.643,0.655
1970-01-01 00:00:00.000057618,1755597848697,23.37,-44.14,-5.94,,,,,,34.48275862068966,-0.396,-0.644,0.656
1970-01-01 00:00:00.000057648,1755597848726,23.35,-44.12,-5.94,,,,,,33.333333333333336,-0.395,-0.644,0.656
1970-01-01 00:00:00.000057677,1755597848757,23.36,-44.12,-5.94,,,,,,34.48275862068966,-0.394,-0.644,0.656
1970-01-01 00:00:00.000057698,1755597848776,23.35,-44.13,-5.94,,,,,,47.61904761904762,-0.395,-0.643,0.655
1970-01-01 00:00:00.000057727,1755597848806,23.36,-44.14,-5.93,,,,,,34.48275862068966,-0.395,-0.642,0.656
1970-01-01 00:00:00.000057757,1755597848836,23.35,-44.11,-5.93,,,,,,33.333333333333336,-0.394,-0.643,0.657
1970-01-01 00:00:00.000057787,1755597848865,23.33,-44.1,-5.93,,,,,,33.333333333333336,-0.395,-0.643,0.657
1970-01-01 00:00:00.000057816,1755597848895,23.37,-44.1,-5.91,,,,,,34.48275862068966,-0.394,-0.643,0.656
1970-01-01 00:00:00.000057846,1755597848925,23.36,-44.12,-5.94,,,,,,33.333333333333336,-0.395,-0.643,0.655
1970-01-01 00:00:00.000057905,1755597848983,23.35,-44.15,-5.93,,,,,,33.333333333333336,-0.395,-0.643,0.656
1970-01-01 00:00:00.000057934,1755597849013,23.37,-44.12,-5.92,,,,,,34.48275862068966,-0.396,-0.644,0.657
1970-01-01 00:00:00.000057964,1755597849042,23.35,-44.15,-5.93,,,,,,33.333333333333336,-0.396,-0.645,0.655
1970-01-01 00:00:00.000058023,1755597849101,23.35,-44.14,-5.95,,,,,,33.333333333333336,-0.396,-0.645,0.656
1970-01-01 00:00:00.000058052,1755597849131,23.36,-44.16,-5.94,,,,,,34.48275862068966,-0.397,-0.645,0.655
1970-01-01 00:00:00.000058082,1755597849161,23.39,-44.16,-5.9,,,,,,33.333333333333336,-0.396,-0.644,0.656
1970-01-01 00:00:00.000058112,1755597849190,23.38,-44.14,-5.91,,,,,,33.333333333333336,-0.394,-0.643,0.658
1970-01-01 00:00:00.000058141,1755597849220,23.34,-44.12,-5.94,,,,,,34.48275862068966,-0.393,-0.644,0.656
1970-01-01 00:00:00.000058171,1755597849249,23.33,-44.13,-5.96,,,,,,33.333333333333336,-0.394,-0.643,0.653
1970-01-01 00:00:00.000058200,1755597849279,23.3,-44.19,-6.0,,,,,,34.48275862068966,-0.393,-0.643,0.654
1970-01-01 00:00:00.000058230,1755597849308,23.28,-44.2,-6.02,,,,,,33.333333333333336,-0.394,-0.645,0.658
1970-01-01 00:00:00.000058259,1755597849338,23.31,-44.17,-6.0,,,,,,34.48275862068966,-0.395,-0.645,0.657
1970-01-01 00:00:00.000058289,1755597849368,23.32,-44.14,-5.97,,,,,,33.333333333333336,-0.394,-0.646,0.656
1970-01-01 00:00:00.000058318,1755597849397,22.87,-44.14,-5.96,,,,,,34.48275862068966,-0.392,-0.643,0.656
1970-01-01 00:00:00.000058348,1755597849427,22.87,-44.14,-5.98,,,,,,33.333333333333336,-0.393,-0.643,0.656
1970-01-01 00:00:00.000058378,1755597849456,22.87,-44.13,-5.98,,,,,,33.333333333333336,-0.393,-0.644,0.656
1970-01-01 00:00:00.000058407,1755597849486,22.89,-44.12,-5.97,,,,,,34.48275862068966,-0.393,-0.645,0.656
1970-01-01 00:00:00.000058437,1755597849515,22.92,-44.13,-5.96,,,,,,33.333333333333336,-0.394,-0.644,0.654
1970-01-01 00:00:00.000058466,1755597849545,22.92,-44.14,-5.96,,,,,,34.48275862068966,-0.394,-0.644,0.655
1970-01-01 00:00:00.000058496,1755597849574,22.92,-44.14,-5.96,,,,,,33.333333333333336,-0.393,-0.643,0.656
1970-01-01 00:00:00.000058525,1755597849604,22.94,-44.14,-5.95,,,,,,34.48275862068966,-0.392,-0.643,0.657
1970-01-01 00:00:00.000058555,1755597849633,22.96,-44.13,-5.94,,,,,,33.333333333333336,-0.391,-0.644,0.657
1970-01-01 00:00:00.000058584,1755597849663,22.96,-44.13,-5.95,,,,,,34.48275862068966,-0.392,-0.644,0.655
1970-01-01 00:00:00.000058614,1755597849693,22.95,-44.14,-5.95,,,,,,33.333333333333336,-0.393,-0.644,0.656
1970-01-01 00:00:00.000058644,1755597849722,22.97,-44.13,-5.94,,,,,,33.333333333333336,-0.393,-0.644,0.656
1970-01-01 00:00:00.000058673,1755597849752,22.99,-44.13,-5.92,,,,,,34.48275862068966,-0.395,-0.644,0.655
1970-01-01 00:00:00.000058703,1755597849781,22.98,-44.15,-5.92,,,,,,33.333333333333336,-0.394,-0.644,0.655
1970-01-01 00:00:00.000058732,1755597849811,22.98,-44.16,-5.92,,,,,,34.48275862068966,-0.394,-0.645,0.656
1970-01-01 00:00:00.000058762,1755597849840,23.0,-44.16,-5.91,,,,,,33.333333333333336,-0.394,-0.645,0.655
1970-01-01 00:00:00.000058791,1755597849870,23.0,-44.17,-5.91,,,,,,34.48275862068966,-0.394,-0.645,0.654
1970-01-01 00:00:00.000058821,1755597849899,22.99,-44.16,-5.92,,,,,,33.333333333333336,-0.394,-0.645,0.655
1970-01-01 00:00:00.000058850,1755597849929,23.0,-44.15,-5.9,,,,,,34.48275862068966,-0.394,-0.646,0.655
1970-01-01 00:00:00.000058880,1755597849958,23.03,-44.12,-5.88,,,,,,33.333333333333336,-0.393,-0.645,0.655
1970-01-01 00:00:00.000058909,1755597849988,23.02,-44.1,-5.88,,,,,,34.48275862068966,-0.394,-0.645,0.653
1970-01-01 00:00:00.000058939,1755597850017,23.0,-44.11,-5.88,,,,,,33.333333333333336,-0.393,-0.644,0.653
1970-01-01 00:00:00.000058968,1755597850047,23.0,-44.13,-5.87,,,,,,34.48275862068966,-0.394,-0.645,0.653
1970-01-01 00:00:00.000058998,1755597850076,23.01,-44.13,-5.86,,,,,,33.333333333333336,-0.393,-0.644,0.654
1970-01-01 00:00:00.000059027,1755597850106,22.99,-44.12,-5.88,,,,,,34.48275862068966,-0.393,-0.644,0.657
1970-01-01 00:00:00.000059057,1755597850135,22.97,-44.09,-5.9,,,,,,33.333333333333336,-0.393,-0.644,0.656
1970-01-01 00:00:00.000059116,1755597850195,22.99,-44.11,-5.87,,,,,,33.333333333333336,-0.394,-0.643,0.656
1970-01-01 00:00:00.000059146,1755597850225,23.0,-44.09,-5.86,,,,,,33.333333333333336,-0.393,-0.643,0.658
1970-01-01 00:00:00.000059175,1755597850254,22.98,-44.09,-5.88,,,,,,34.48275862068966,-0.392,-0.642,0.657
1970-01-01 00:00:00.000059205,1755597850284,23.01,-44.11,-5.88,,,,,,33.333333333333336,-0.394,-0.643,0.656
1970-01-01 00:00:00.000059235,1755597850313,23.03,-44.11,-5.87,,,,,,33.333333333333336,-0.395,-0.644,0.656
1970-01-01 00:00:00.000059264,1755597850343,23.02,-44.12,-5.86,,,,,,34.48275862068966,-0.395,-0.645,0.655
1970-01-01 00:00:00.000059294,1755597850372,23.04,-44.13,-5.84,,,,,,33.333333333333336,-0.393,-0.644,0.657
1970-01-01 00:00:00.000059323,1755597850402,23.06,-44.11,-5.83,,,,,,34.48275862068966,-0.392,-0.643,0.659
1970-01-01 00:00:00.000059353,1755597850431,23.03,-44.1,-5.86,,,,,,33.333333333333336,-0.392,-0.643,0.658
1970-01-01 00:00:00.000059382,1755597850461,23.03,-44.12,-5.87,,,,,,34.48275862068966,-0.394,-0.644,0.655
1970-01-01 00:00:00.000059412,1755597850491,23.06,-44.14,-5.85,,,,,,33.333333333333336,-0.395,-0.644,0.656
1970-01-01 00:00:00.000059441,1755597850520,23.06,-44.13,-5.83,,,,,,34.48275862068966,-0.393,-0.645,0.658
1970-01-01 00:00:00.000059471,1755597850550,23.03,-44.12,-5.84,,,,,,33.333333333333336,-0.392,-0.644,0.657
1970-01-01 00:00:00.000059501,1755597850579,23.06,-44.12,-5.83,,,,,,33.333333333333336,-0.392,-0.643,0.658
1970-01-01 00:00:00.000059530,1755597850609,23.08,-44.09,-5.83,,,,,,34.48275862068966,-0.393,-0.643,0.658
1970-01-01 00:00:00.000059560,1755597850639,23.06,-44.09,-5.85,,,,,,33.333333333333336,-0.393,-0.643,0.656
1970-01-01 00:00:00.000059590,1755597850669,23.07,-44.11,-5.86,,,,,,33.333333333333336,-0.394,-0.644,0.657
1970-01-01 00:00:00.000059619,1755597850698,23.09,-44.11,-5.82,,,,,,34.48275862068966,-0.394,-0.645,0.659
1970-01-01 00:00:00.000059649,1755597850728,23.09,-44.09,-5.82,,,,,,33.333333333333336,-0.392,-0.644,0.659
1970-01-01 00:00:00.000059679,1755597850757,23.08,-44.07,-5.81,,,,,,33.333333333333336,-0.392,-0.644,0.658
1970-01-01 00:00:00.000059738,1755597850817,23.1,-44.08,-5.8,,,,,,33.333333333333336,-0.392,-0.643,0.659
1970-01-01 00:00:00.000059767,1755597850846,23.09,-44.05,-5.81,,,,,,34.48275862068966,-0.394,-0.643,0.658
1970-01-01 00:00:00.000059797,1755597850876,23.08,-44.06,-5.79,,,,,,33.333333333333336,-0.395,-0.643,0.656
1970-01-01 00:00:00.000059827,1755597850905,23.11,-44.12,-5.78,,,,,,33.333333333333336,-0.394,-0.64,0.653
1970-01-01 00:00:00.000059856,1755597850935,23.09,-44.18,-5.81,,,,,,34.48275862068966,-0.394,-0.642,0.656
1970-01-01 00:00:00.000059886,1755597850964,23.03,-44.16,-5.81,,,,,,33.333333333333336,-0.394,-0.645,0.661
1970-01-01 00:00:00.000059915,1755597850994,23.07,-44.15,-5.78,,,,,,34.48275862068966,-0.392,-0.646,0.663
1970-01-01 00:00:00.000059945,1755597851023,23.12,-44.12,-5.75,,,,,,33.333333333333336,-0.392,-0.644,0.662
1970-01-01 00:00:00.000059974,1755597851053,23.08,-44.09,-5.77,,,,,,34.48275862068966,-0.393,-0.642,0.656
1970-01-01 00:00:00.000060004,1755597851083,23.04,-44.14,-5.79,,,,,,33.333333333333336,-0.394,-0.644,0.658
1970-01-01 00:00:00.000060063,1755597851142,23.06,-44.09,-5.73,,,,,,33.333333333333336,-0.393,-0.645,0.662
1970-01-01 00:00:00.000060092,1755597851171,23.04,-44.07,-5.75,,,,,,34.48275862068966,-0.391,-0.642,0.659
1970-01-01 00:00:00.000060122,1755597851201,23.04,-44.09,-5.76,,,,,,33.333333333333336,-0.392,-0.643,0.658
1970-01-01 00:00:00.000060151,1755597851230,23.04,-44.08,-5.75,,,,,,34.48275862068966,-0.394,-0.644,0.659
1970-01-01 00:00:00.000060181,1755597851260,23.06,-44.08,-5.72,,,,,,33.333333333333336,-0.394,-0.643,0.66
1970-01-01 00:00:00.000060211,1755597851289,23.07,-44.07,-5.71,,,,,,33.333333333333336,-0.393,-0.641,0.659
1970-01-01 00:00:00.000060240,1755597851319,23.07,-44.08,-5.73,,,,,,34.48275862068966,-0.392,-0.641,0.658
1970-01-01 00:00:00.000060270,1755597851348,23.08,-44.07,-5.74,,,,,,33.333333333333336,-0.394,-0.644,0.658
1970-01-01 00:00:00.000060299,1755597851378,23.09,-44.06,-5.72,,,,,,34.48275862068966,-0.396,-0.645,0.658
1970-01-01 00:00:00.000060329,1755597851408,23.11,-44.05,-5.7,,,,,,33.333333333333336,-0.395,-0.645,0.656
1970-01-01 00:00:00.000060358,1755597851437,23.11,-44.04,-5.7,770.0,,,,,34.48275862068966,-0.395,-0.644,0.656
