timestamp_ms,recv_timestamp_ms,pitch,roll,yaw,flex1,flex2,flex3,flex4,flex5,sampling_hz,accel_x,accel_y,accel_z
14653,1755598315098,62.26,-17.55,-2.97,769,763,865,927,870,33.333333333333336,-0.869,-0.289,0.347
16624,1755598317069,70.83,-55.91,-3.56,770,766,870,923,895,33.333333333333336,-0.949,-0.308,0.113
17038,1755598317483,70.83,-58.83,-3.44,768,773,877,924,896,34.48275862068966,-0.95,-0.298,0.116
17097,1755598317542,70.85,-59.26,-3.46,769,762,868,921,895,34.48275862068966,-0.95,-0.299,0.115
17363,1755598317808,70.86,-60.98,-3.52,768,765,870,921,891,33.333333333333336,-0.95,-0.302,0.116
17630,1755598318074,70.71,-62.65,-3.65,769,768,871,912,897,33.333333333333336,-0.945,-0.302,0.123
17797,1755598318242,70.89,-63.07,-3.69,769,770,863,913,895,50.0,-0.948,-0.304,0.115
17827,1755598318272,70.92,-63.15,-3.7,767,773,870,923,895,33.333333333333336,-0.95,-0.305,0.119
17916,1755598318360,70.94,-63.22,-3.68,773,762,865,922,893,33.333333333333336,-0.95,-0.306,0.119
17945,1755598318390,70.91,-63.29,-3.64,773,766,867,918,894,34.48275862068966,-0.951,-0.305,0.117
18083,1755598318528,70.85,-64.02,-3.65,768,773,861,924,897,50.0,-0.949,-0.303,0.119
18113,1755598318558,70.82,-64.17,-3.65,761,775,862,916,897,33.333333333333336,-0.948,-0.303,0.121
18142,1755598318587,70.85,-64.26,-3.64,768,762,862,921,894,34.48275862068966,-0.948,-0.304,0.122
18201,1755598318646,70.86,-64.39,-3.61,773,772,864,918,897,34.48275862068966,-0.949,-0.304,0.122
18290,1755598318735,70.91,-64.63,-3.59,762,767,866,919,896,33.333333333333336,-0.95,-0.304,0.121
18320,1755598318765,70.88,-64.69,-3.57,768,769,865,918,891,33.333333333333336,-0.949,-0.304,0.121
18349,1755598318794,70.91,-64.77,-3.57,768,765,867,915,896,34.48275862068966,-0.948,-0.304,0.12
18379,1755598318824,70.86,-64.86,-3.56,770,767,869,925,886,33.333333333333336,-0.948,-0.304,0.119
18408,1755598318853,70.89,-64.94,-3.55,762,763,859,924,894,34.48275862068966,-0.949,-0.303,0.121
18497,1755598318942,70.9,-65.11,-3.54,768,765,868,917,893,34.48275862068966,-0.948,-0.303,0.122
18527,1755598318972,70.86,-65.16,-3.53,770,765,864,914,891,33.333333333333336,-0.948,-0.303,0.121
18675,1755598319120,70.84,-65.48,-3.54,769,770,865,924,891,33.333333333333336,-0.949,-0.302,0.122
18705,1755598319149,70.86,-65.52,-3.53,767,772,866,912,895,33.333333333333336,-0.95,-0.302,0.122
18734,1755598319179,70.84,-65.57,-3.53,765,774,870,920,896,34.48275862068966,-0.95,-0.301,0.123
18763,1755598319209,70.79,-65.62,-3.54,769,766,866,920,889,34.48275862068966,-0.947,-0.301,0.122
18793,1755598319238,70.82,-65.66,-3.55,766,769,865,923,892,33.333333333333336,-0.949,-0.302,0.123
18823,1755598319268,70.8,-65.71,-3.54,767,768,868,918,895,33.333333333333336,-0.95,-0.303,0.123
18853,1755598319298,70.82,-65.74,-3.53,770,768,870,922,893,33.333333333333336,-0.95,-0.302,0.123
18883,1755598319327,70.8,-65.78,-3.53,769,770,869,920,888,33.333333333333336,-0.949,-0.302,0.123
18912,1755598319357,70.8,-65.81,-3.52,763,769,866,922,887,34.48275862068966,-0.949,-0.302,0.123
19059,1755598319504,70.72,-65.99,-3.49,769,765,861,923,892,34.48275862068966,-0.95,-0.301,0.124
19089,1755598319534,70.68,-65.98,-3.47,769,765,859,919,891,33.333333333333336,-0.948,-0.301,0.125
19118,1755598319563,70.67,-66.03,-3.47,766,765,867,917,893,34.48275862068966,-0.948,-0.301,0.125
19148,1755598319593,70.67,-66.08,-3.47,771,767,865,919,892,33.333333333333336,-0.949,-0.301,0.126
19178,1755598319622,70.6,-66.08,-3.46,772,767,869,921,891,33.333333333333336,-0.95,-0.302,0.128
19237,1755598319682,70.61,-66.08,-3.45,762,773,877,919,890,33.333333333333336,-0.948,-0.299,0.128
19266,1755598319711,70.58,-66.09,-3.45,767,765,871,918,886,34.48275862068966,-0.947,-0.3,0.128
19296,1755598319741,70.61,-66.12,-3.46,766,770,865,916,897,33.333333333333336,-0.948,-0.302,0.128
19326,1755598319771,70.56,-66.12,-3.44,765,766,871,919,897,33.333333333333336,-0.949,-0.302,0.128
19385,1755598319830,70.55,-66.1,-3.4,771,763,865,912,891,33.333333333333336,-0.947,-0.3,0.13
19414,1755598319859,70.55,-66.1,-3.4,765,761,864,918,890,34.48275862068966,-0.947,-0.3,0.131
19444,1755598319889,70.52,-66.1,-3.4,770,766,873,920,888,33.333333333333336,-0.947,-0.3,0.13
19474,1755598319919,70.53,-66.11,-3.39,771,768,862,918,888,33.333333333333336,-0.948,-0.3,0.131
19503,1755598319948,70.56,-66.09,-3.37,763,774,864,919,890,34.48275862068966,-0.949,-0.3,0.132
19533,1755598319978,70.56,-66.08,-3.35,767,775,865,926,890,33.333333333333336,-0.948,-0.299,0.133
19563,1755598320007,70.6,-66.1,-3.36,770,770,873,914,886,33.333333333333336,-0.947,-0.299,0.132
19592,1755598320037,70.61,-66.09,-3.36,772,773,874,914,889,34.48275862068966,-0.948,-0.299,0.132
19622,1755598320067,70.61,-66.08,-3.36,764,763,874,921,888,33.333333333333336,-0.948,-0.299,0.132
19651,1755598320096,70.61,-66.08,-3.36,772,768,870,912,883,34.48275862068966,-0.948,-0.298,0.131
19681,1755598320126,70.66,-66.09,-3.37,771,770,872,919,893,33.333333333333336,-0.948,-0.298,0.132
19710,1755598320155,70.65,-66.07,-3.37,770,767,869,919,897,34.48275862068966,-0.949,-0.298,0.133
19740,1755598320185,70.64,-66.06,-3.37,760,770,868,919,892,33.333333333333336,-0.949,-0.299,0.131
19770,1755598320214,70.68,-66.03,-3.37,768,762,868,914,888,33.333333333333336,-0.948,-0.298,0.131
19799,1755598320244,70.63,-66.01,-3.37,768,770,866,918,891,34.48275862068966,-0.948,-0.298,0.131
19858,1755598320303,70.67,-66.03,-3.37,766,773,863,924,888,34.48275862068966,-0.95,-0.298,0.132
19888,1755598320332,70.68,-66.04,-3.36,769,771,872,915,890,33.333333333333336,-0.949,-0.298,0.132
19917,1755598320362,70.7,-66.05,-3.38,769,766,861,912,891,34.48275862068966,-0.947,-0.298,0.132
19947,1755598320391,70.72,-66.06,-3.4,768,763,868,918,890,33.333333333333336,-0.948,-0.299,0.132
19976,1755598320421,70.71,-66.07,-3.39,769,775,861,919,879,34.48275862068966,-0.95,-0.301,0.129
20006,1755598320451,70.73,-66.07,-3.36,768,770,863,922,887,33.333333333333336,-0.951,-0.302,0.129
20035,1755598320480,70.74,-66.08,-3.33,770,766,864,912,885,34.48275862068966,-0.95,-0.301,0.13
20065,1755598320510,70.72,-66.1,-3.31,770,771,863,918,893,33.333333333333336,-0.949,-0.3,0.13
20095,1755598320540,70.7,-66.1,-3.29,766,769,876,924,888,33.333333333333336,-0.95,-0.299,0.131
20125,1755598320569,70.63,-66.1,-3.27,769,770,868,919,888,33.333333333333336,-0.947,-0.298,0.13
20154,1755598320599,70.65,-66.11,-3.27,768,771,857,919,887,34.48275862068966,-0.948,-0.297,0.131
20213,1755598320658,70.61,-66.11,-3.26,770,775,860,920,890,34.48275862068966,-0.947,-0.297,0.132
20243,1755598320688,70.59,-66.11,-3.26,770,774,861,922,884,33.333333333333336,-0.947,-0.296,0.132
20302,1755598320747,70.59,-66.16,-3.28,768,773,865,923,891,34.48275862068966,-0.947,-0.296,0.133
20332,1755598320777,70.6,-66.15,-3.29,770,771,864,922,890,33.333333333333336,-0.948,-0.297,0.135
20361,1755598320806,70.59,-66.14,-3.28,771,771,859,920,879,34.48275862068966,-0.948,-0.297,0.135
20391,1755598320836,70.61,-66.13,-3.29,769,771,868,918,887,33.333333333333336,-0.948,-0.296,0.134
20420,1755598320866,70.59,-66.14,-3.29,772,774,869,919,890,34.48275862068966,-0.947,-0.296,0.133
20450,1755598320895,70.58,-66.15,-3.31,766,770,859,927,887,33.333333333333336,-0.947,-0.296,0.134
20480,1755598320925,70.56,-66.13,-3.32,767,766,869,916,892,33.333333333333336,-0.949,-0.297,0.135
20509,1755598320954,70.52,-66.1,-3.31,771,764,869,919,884,34.48275862068966,-0.949,-0.298,0.135
20539,1755598320984,70.56,-66.1,-3.31,763,772,870,913,878,33.333333333333336,-0.949,-0.298,0.136
20569,1755598321014,70.55,-66.1,-3.3,771,763,868,909,892,33.333333333333336,-0.947,-0.298,0.136
20598,1755598321043,70.58,-66.07,-3.3,772,768,861,916,886,34.48275862068966,-0.948,-0.298,0.136
20628,1755598321073,70.57,-66.05,-3.31,762,763,865,915,880,33.333333333333336,-0.948,-0.298,0.137
20657,1755598321103,70.57,-66.04,-3.31,765,768,866,918,887,34.48275862068966,-0.948,-0.298,0.137
20687,1755598321132,70.54,-66.04,-3.31,770,761,868,917,887,33.333333333333336,-0.947,-0.297,0.136
20717,1755598321162,70.51,-66.04,-3.32,771,772,864,912,890,33.333333333333336,-0.946,-0.297,0.137
20746,1755598321191,70.49,-66.01,-3.34,767,767,858,924,893,34.48275862068966,-0.945,-0.296,0.138
20776,1755598321221,70.53,-65.99,-3.37,766,768,861,917,887,33.333333333333336,-0.947,-0.297,0.14
20805,1755598321250,70.56,-65.94,-3.38,772,768,868,919,881,34.48275862068966,-0.949,-0.299,0.14
20835,1755598321280,70.61,-65.92,-3.37,761,768,866,916,877,33.333333333333336,-0.949,-0.301,0.139
20864,1755598321309,70.63,-65.91,-3.35,769,760,861,915,887,34.48275862068966,-0.947,-0.3,0.136
20894,1755598321339,70.65,-65.92,-3.36,764,769,859,921,890,33.333333333333336,-0.947,-0.299,0.135
20923,1755598321368,70.6,-65.93,-3.37,776,765,870,912,885,34.48275862068966,-0.946,-0.298,0.135
20953,1755598321398,70.6,-65.92,-3.39,767,764,866,917,879,33.333333333333336,-0.947,-0.299,0.137
20983,1755598321427,70.56,-65.91,-3.39,769,766,865,911,890,33.333333333333336,-0.947,-0.3,0.138
21012,1755598321457,70.58,-65.89,-3.38,764,760,862,917,890,34.48275862068966,-0.947,-0.301,0.138
21042,1755598321487,70.58,-65.88,-3.37,761,764,858,920,885,33.333333333333336,-0.948,-0.3,0.138
21071,1755598321517,70.59,-65.87,-3.36,769,775,868,916,882,34.48275862068966,-0.948,-0.299,0.137
21092,1755598321537,70.59,-65.86,-3.36,772,769,869,914,891,47.61904761904762,-0.948,-0.299,0.138
21122,1755598321567,70.55,-65.82,-3.35,766,772,864,920,882,33.333333333333336,-0.947,-0.299,0.138
21151,1755598321596,70.58,-65.8,-3.35,765,777,864,913,887,34.48275862068966,-0.947,-0.299,0.139
21181,1755598321626,70.55,-65.77,-3.35,771,774,870,921,880,33.333333333333336,-0.947,-0.299,0.139
21211,1755598321655,70.58,-65.74,-3.35,770,772,866,919,895,33.333333333333336,-0.947,-0.299,0.14
21240,1755598321685,70.58,-65.68,-3.34,768,768,861,911,885,34.48275862068966,-0.948,-0.299,0.14
21270,1755598321715,70.55,-65.68,-3.34,772,767,867,921,888,33.333333333333336,-0.948,-0.3,0.14
21299,1755598321744,70.6,-65.67,-3.34,770,777,864,919,879,34.48275862068966,-0.949,-0.3,0.141
21329,1755598321774,70.58,-65.63,-3.32,762,766,866,912,882,33.333333333333336,-0.949,-0.299,0.141
21359,1755598321803,70.58,-65.58,-3.3,764,763,872,916,882,33.333333333333336,-0.948,-0.298,0.14
21388,1755598321834,70.56,-65.57,-3.3,763,771,873,916,883,34.48275862068966,-0.948,-0.298,0.141
21408,1755598321853,70.56,-65.56,-3.29,769,773,869,918,882,50.0,-0.948,-0.298,0.141
21438,1755598321883,70.58,-65.51,-3.27,762,770,864,927,892,33.333333333333336,-0.948,-0.298,0.142
21467,1755598321912,70.56,-65.47,-3.27,771,765,864,918,884,34.48275862068966,-0.947,-0.298,0.141
21497,1755598321942,70.56,-65.47,-3.27,766,771,861,913,888,33.333333333333336,-0.947,-0.297,0.14
21526,1755598321971,70.54,-65.48,-3.27,765,763,861,915,884,34.48275862068966,-0.948,-0.297,0.14
21556,1755598322001,70.53,-65.47,-3.27,771,775,871,916,881,33.333333333333336,-0.948,-0.298,0.14
21585,1755598322030,70.53,-65.46,-3.26,764,768,858,914,881,34.48275862068966,-0.947,-0.297,0.141
21615,1755598322060,70.51,-65.42,-3.26,768,764,863,917,885,33.333333333333336,-0.946,-0.297,0.142
21645,1755598322090,70.48,-65.38,-3.26,770,772,861,912,884,33.333333333333336,-0.946,-0.297,0.142
21674,1755598322119,70.49,-65.36,-3.25,768,768,869,915,880,34.48275862068966,-0.948,-0.297,0.142
21704,1755598322149,70.48,-65.34,-3.25,771,770,866,912,891,33.333333333333336,-0.948,-0.297,0.142
21734,1755598322179,70.47,-65.31,-3.24,768,762,866,917,877,33.333333333333336,-0.947,-0.297,0.142
21764,1755598322208,70.46,-65.27,-3.24,767,769,859,916,888,33.333333333333336,-0.946,-0.297,0.143
21793,1755598322238,70.46,-65.24,-3.24,768,771,868,913,881,34.48275862068966,-0.947,-0.297,0.144
21823,1755598322268,70.45,-65.22,-3.23,766,762,858,919,874,33.333333333333336,-0.949,-0.297,0.145
21852,1755598322297,70.46,-65.2,-3.23,776,770,867,909,878,34.48275862068966,-0.948,-0.297,0.144
21882,1755598322327,70.5,-65.18,-3.24,770,773,857,922,885,33.333333333333336,-0.946,-0.297,0.143
21912,1755598322357,70.47,-65.15,-3.23,771,769,861,914,889,33.333333333333336,-0.947,-0.297,0.143
21941,1755598322386,70.44,-65.11,-3.23,770,772,862,906,885,34.48275862068966,-0.948,-0.296,0.143
21971,1755598322416,70.46,-65.09,-3.22,764,773,861,918,881,33.333333333333336,-0.947,-0.296,0.144
22030,1755598322475,70.45,-65.04,-3.21,771,778,862,921,882,34.48275862068966,-0.948,-0.297,0.145
