timestamp_ms,recv_timestamp_ms,pitch,roll,yaw,flex1,flex2,flex3,flex4,flex5,sampling_hz,accel_x,accel_y,accel_z
110045,1755606979937,60.8,-67.55,-47.82,782,777,780,389,860,34.48275862068966,-0.876,-0.45,0.176
110155,1755606979945,60.79,-67.52,-47.87,785,776,781,393,857,33.333333333333336,-0.876,-0.452,0.176
110273,1755606979953,60.87,-67.67,-47.93,787,781,780,415,856,34.48275862068966,-0.874,-0.453,0.173
110303,1755606979955,60.91,-67.77,-47.97,781,772,779,363,854,33.333333333333336,-0.875,-0.458,0.175
110392,1755606979961,61.4,-68.04,-48.08,779,779,777,427,859,33.333333333333336,-0.875,-0.454,0.172
110422,1755606979963,61.68,-67.86,-48.1,784,779,784,399,858,33.333333333333336,-0.876,-0.458,0.168
110451,1755606979965,61.99,-67.83,-48.17,778,775,780,341,857,34.48275862068966,-0.874,-0.461,0.168
110511,1755606979969,62.49,-67.92,-48.29,782,774,778,405,859,33.333333333333336,-0.874,-0.457,0.164
110540,1755606979971,62.77,-67.59,-48.26,785,779,778,422,856,34.48275862068966,-0.881,-0.456,0.164
110570,1755606979973,62.92,-67.42,-48.26,785,778,776,357,858,33.333333333333336,-0.873,-0.457,0.158
110599,1755606979975,63.13,-67.35,-48.27,785,775,775,341,859,34.48275862068966,-0.884,-0.462,0.152
110718,1755606979983,63.47,-66.75,-48.24,787,775,780,337,860,33.333333333333336,-0.885,-0.45,0.133
110738,1755606979985,63.53,-67.2,-48.3,784,774,782,402,860,50.0,-0.884,-0.455,0.129
110767,1755606979987,63.62,-67.75,-48.3,787,778,776,350,860,34.48275862068966,-0.882,-0.458,0.131
110797,1755606979989,63.8,-68.32,-48.4,788,774,782,312,858,33.333333333333336,-0.881,-0.451,0.134
110827,1755606979991,64.06,-69.05,-48.54,784,777,778,371,854,33.333333333333336,-0.883,-0.447,0.132
110857,1755606979993,64.29,-69.9,-48.66,789,775,772,394,854,33.333333333333336,-0.878,-0.451,0.125
110927,1755606979999,63.78,-71.48,-49.05,789,774,781,388,860,50.0,-0.875,-0.469,0.104
110986,1755606980003,63.55,-72.09,-49.13,788,776,778,356,855,33.333333333333336,-0.876,-0.465,0.113
111016,1755606980005,63.55,-72.02,-49.21,789,774,782,357,854,33.333333333333336,-0.88,-0.469,0.109
111045,1755606980007,63.55,-71.77,-49.15,789,774,779,402,858,34.48275862068966,-0.884,-0.47,0.106
111134,1755606980013,63.36,-71.95,-49.2,784,772,781,311,854,33.333333333333336,-0.878,-0.479,0.097
111163,1755606980015,63.17,-71.99,-49.14,788,784,780,352,850,34.48275862068966,-0.877,-0.481,0.102
111193,1755606980016,62.99,-72.16,-49.1,788,774,781,401,849,33.333333333333336,-0.877,-0.479,0.097
111222,1755606980019,62.84,-72.36,-49.07,783,769,779,379,847,34.48275862068966,-0.879,-0.476,0.093
111252,1755606980021,62.72,-72.44,-49.06,788,776,779,353,852,33.333333333333336,-0.875,-0.478,0.097
111282,1755606980022,62.67,-72.48,-49.04,789,779,781,347,854,33.333333333333336,-0.877,-0.479,0.102
111311,1755606980025,62.52,-72.48,-48.95,789,779,782,400,849,34.48275862068966,-0.876,-0.476,0.105
111371,1755606980028,62.43,-72.65,-48.91,783,776,782,325,851,33.333333333333336,-0.878,-0.475,0.102
111430,1755606980033,62.34,-72.63,-48.77,789,778,776,360,850,33.333333333333336,-0.876,-0.472,0.108
111459,1755606980034,62.08,-72.6,-48.67,786,776,774,387,853,34.48275862068966,-0.876,-0.473,0.11
111489,1755606980036,62.06,-72.6,-48.65,785,778,782,376,857,33.333333333333336,-0.877,-0.469,0.108
111518,1755606980038,62.1,-72.6,-48.65,787,768,780,348,855,34.48275862068966,-0.877,-0.466,0.111
111548,1755606980040,62.14,-72.73,-48.71,789,769,781,349,854,33.333333333333336,-0.877,-0.467,0.112
111577,1755606980042,61.96,-72.78,-48.68,785,772,781,403,852,34.48275862068966,-0.878,-0.469,0.109
111607,1755606980044,61.87,-72.81,-48.66,789,775,783,417,853,33.333333333333336,-0.876,-0.468,0.106
111636,1755606980046,61.81,-72.91,-48.67,787,778,779,368,850,34.48275862068966,-0.877,-0.465,0.109
111666,1755606980048,61.78,-73.03,-48.69,785,781,782,343,853,33.333333333333336,-0.879,-0.467,0.114
111695,1755606980051,61.78,-72.98,-48.67,782,776,780,397,856,34.48275862068966,-0.878,-0.466,0.119
111725,1755606980053,61.81,-72.98,-48.68,788,769,779,422,851,33.333333333333336,-0.878,-0.465,0.121
111754,1755606980055,61.83,-72.98,-48.7,782,768,781,381,852,34.48275862068966,-0.878,-0.465,0.118
111784,1755606980057,61.82,-73.06,-48.69,788,774,776,360,849,33.333333333333336,-0.876,-0.466,0.113
111813,1755606980059,61.8,-73.11,-48.69,780,779,781,391,853,34.48275862068966,-0.876,-0.464,0.116
111843,1755606980061,61.73,-73.19,-48.72,786,778,776,422,851,33.333333333333336,-0.881,-0.466,0.118
111872,1755606980082,61.69,-73.24,-48.72,786,780,784,395,853,34.48275862068966,-0.881,-0.467,0.115
111902,1755606980111,61.74,-73.35,-48.74,787,773,778,353,854,33.333333333333336,-0.88,-0.465,0.116
111932,1755606980141,61.71,-73.36,-48.74,783,774,784,347,852,33.333333333333336,-0.881,-0.465,0.12
111962,1755606980171,61.76,-73.37,-48.78,786,776,781,403,850,33.333333333333336,-0.88,-0.464,0.117
111991,1755606980200,61.71,-73.4,-48.77,783,779,779,415,851,34.48275862068966,-0.878,-0.464,0.116
112021,1755606980230,61.79,-73.53,-48.82,785,771,780,332,849,33.333333333333336,-0.88,-0.465,0.114
112050,1755606980260,61.74,-73.6,-48.81,788,784,782,326,859,34.48275862068966,-0.88,-0.466,0.115
112080,1755606980289,61.75,-73.51,-48.81,781,768,774,356,851,33.333333333333336,-0.877,-0.466,0.118
112110,1755606980319,61.88,-73.48,-48.84,785,772,776,405,843,33.333333333333336,-0.879,-0.462,0.119
112139,1755606980349,61.95,-73.41,-48.86,789,771,779,402,854,34.48275862068966,-0.879,-0.465,0.12
112169,1755606980378,62.05,-73.27,-48.88,789,772,781,345,845,33.333333333333336,-0.879,-0.465,0.116
112198,1755606980408,62.09,-73.28,-48.87,786,767,780,360,851,34.48275862068966,-0.879,-0.469,0.111
112228,1755606980437,61.99,-73.48,-48.86,787,777,778,383,854,33.333333333333336,-0.877,-0.468,0.108
112257,1755606980467,61.83,-73.58,-48.84,786,776,779,407,854,34.48275862068966,-0.878,-0.468,0.11
112287,1755606980496,61.74,-73.58,-48.82,788,777,781,370,852,33.333333333333336,-0.876,-0.472,0.114
112317,1755606980526,61.71,-73.72,-48.79,781,779,781,343,851,33.333333333333336,-0.877,-0.469,0.114
112346,1755606980555,61.62,-73.87,-48.78,785,776,774,390,853,34.48275862068966,-0.878,-0.465,0.111
112376,1755606980585,61.58,-73.97,-48.79,785,774,778,421,851,33.333333333333336,-0.88,-0.464,0.111
112405,1755606980615,61.56,-74.04,-48.81,787,778,782,410,847,34.48275862068966,-0.879,-0.467,0.113
112435,1755606980645,61.49,-74.19,-48.81,785,786,780,354,847,33.333333333333336,-0.879,-0.466,0.115
112455,1755606980664,61.47,-74.38,-48.83,784,776,779,412,846,50.0,-0.878,-0.464,0.114
112485,1755606980694,61.41,-74.5,-48.84,786,773,783,366,849,33.333333333333336,-0.879,-0.465,0.115
112514,1755606980723,61.44,-74.49,-48.85,785,768,778,393,854,34.48275862068966,-0.88,-0.463,0.119
112544,1755606980753,61.39,-74.37,-48.84,783,771,781,419,846,33.333333333333336,-0.878,-0.463,0.12
112573,1755606980783,61.48,-74.39,-48.86,784,777,779,396,856,34.48275862068966,-0.879,-0.464,0.118
112603,1755606980812,61.46,-74.43,-48.89,783,774,775,360,847,33.333333333333336,-0.879,-0.463,0.112
112632,1755606980842,61.43,-74.48,-48.9,785,774,779,327,851,34.48275862068966,-0.877,-0.465,0.113
112662,1755606980872,61.45,-74.62,-48.95,782,776,779,368,840,33.333333333333336,-0.879,-0.467,0.116
112692,1755606980901,61.43,-74.76,-48.97,788,774,784,384,848,33.333333333333336,-0.878,-0.469,0.118
112721,1755606980931,61.38,-74.66,-48.92,785,779,774,325,852,34.48275862068966,-0.879,-0.468,0.122
112751,1755606980960,61.39,-74.56,-48.91,780,772,780,321,854,33.333333333333336,-0.878,-0.466,0.119
112781,1755606980990,61.35,-74.69,-48.92,786,774,779,358,860,33.333333333333336,-0.879,-0.467,0.113
112810,1755606981019,61.2,-74.86,-48.89,787,775,780,409,855,34.48275862068966,-0.88,-0.47,0.112
112840,1755606981049,61.03,-74.83,-48.8,785,772,773,393,853,33.333333333333336,-0.881,-0.468,0.118
112869,1755606981079,60.97,-74.75,-48.79,785,776,782,355,841,34.48275862068966,-0.879,-0.464,0.121
112899,1755606981108,60.93,-74.76,-48.8,784,776,778,359,848,33.333333333333336,-0.88,-0.464,0.123
112929,1755606981138,60.89,-74.72,-48.79,786,773,778,396,851,33.333333333333336,-0.88,-0.463,0.122
112958,1755606981167,60.8,-74.65,-48.75,788,776,776,406,851,34.48275862068966,-0.879,-0.465,0.123
113017,1755606981226,60.76,-74.64,-48.73,784,768,783,336,850,34.48275862068966,-0.879,-0.461,0.126
113047,1755606981256,60.68,-74.57,-48.73,784,769,780,365,846,33.333333333333336,-0.879,-0.462,0.126
113076,1755606981286,60.49,-74.44,-48.63,787,769,780,412,848,34.48275862068966,-0.879,-0.464,0.127
113096,1755606981305,60.38,-74.37,-48.58,778,772,781,374,854,50.0,-0.878,-0.463,0.125
113126,1755606981335,60.42,-74.42,-48.62,784,772,781,418,853,33.333333333333336,-0.878,-0.46,0.128
113155,1755606981366,60.37,-74.41,-48.6,788,778,781,385,852,34.48275862068966,-0.879,-0.46,0.13
113176,1755606981385,60.34,-74.37,-48.59,784,775,778,379,849,47.61904761904762,-0.879,-0.461,0.13
113206,1755606981415,60.37,-74.36,-48.59,786,774,779,390,850,33.333333333333336,-0.879,-0.461,0.134
113235,1755606981445,60.43,-74.42,-48.59,781,771,780,338,852,34.48275862068966,-0.879,-0.461,0.134
113265,1755606981474,60.4,-74.47,-48.57,787,774,783,361,845,33.333333333333336,-0.879,-0.46,0.131
113295,1755606981504,60.43,-74.47,-48.58,782,770,779,393,849,33.333333333333336,-0.879,-0.458,0.132
113315,1755606981524,60.45,-74.47,-48.59,785,779,775,346,848,50.0,-0.879,-0.459,0.135
113344,1755606981553,60.5,-74.55,-48.61,783,775,781,397,850,34.48275862068966,-0.878,-0.461,0.138
113373,1755606981583,60.52,-74.54,-48.58,786,778,778,414,851,34.48275862068966,-0.879,-0.461,0.137
113403,1755606981612,60.48,-74.45,-48.56,785,776,780,375,858,33.333333333333336,-0.879,-0.458,0.133
113433,1755606981642,60.48,-74.46,-48.59,785,779,780,364,846,33.333333333333336,-0.879,-0.458,0.134
113462,1755606981672,60.48,-74.42,-48.59,784,776,783,385,850,34.48275862068966,-0.877,-0.459,0.133
113492,1755606981701,60.54,-74.49,-48.62,784,772,780,403,847,33.333333333333336,-0.878,-0.458,0.134
113551,1755606981761,60.34,-74.24,-48.69,786,776,775,340,851,34.48275862068966,-0.876,-0.46,0.135
113571,1755606981781,60.25,-74.18,-48.69,786,773,780,396,848,50.0,-0.879,-0.461,0.137
113601,1755606981810,60.05,-74.23,-48.65,782,772,775,309,849,33.333333333333336,-0.877,-0.46,0.134
113631,1755606981840,59.97,-74.21,-48.66,779,773,776,337,848,33.333333333333336,-0.878,-0.461,0.138
113660,1755606981869,59.87,-74.06,-48.64,788,776,779,385,846,34.48275862068966,-0.877,-0.462,0.141
113690,1755606981899,59.84,-73.97,-48.61,784,781,777,383,848,33.333333333333336,-0.88,-0.459,0.143
113720,1755606981929,59.81,-73.92,-48.56,785,786,780,363,851,33.333333333333336,-0.879,-0.46,0.146
113749,1755606981958,59.85,-73.85,-48.56,785,768,779,364,851,34.48275862068966,-0.879,-0.46,0.146
113779,1755606981988,59.86,-73.79,-48.56,784,769,781,401,855,33.333333333333336,-0.879,-0.458,0.143
113808,1755606982017,59.8,-73.83,-48.56,786,772,774,405,849,34.48275862068966,-0.879,-0.458,0.143
113838,1755606982047,59.72,-73.87,-48.53,784,773,778,363,850,33.333333333333336,-0.879,-0.46,0.148
113867,1755606982076,59.79,-73.77,-48.52,783,770,782,348,849,34.48275862068966,-0.877,-0.456,0.151
113897,1755606982106,59.87,-73.74,-48.56,786,768,781,384,852,33.333333333333336,-0.878,-0.455,0.148
113917,1755606982126,59.9,-73.73,-48.57,785,777,775,349,850,50.0,-0.88,-0.458,0.144
113946,1755606982155,59.86,-73.73,-48.56,787,776,780,396,844,34.48275862068966,-0.878,-0.46,0.146
113976,1755606982186,59.9,-73.74,-48.55,783,773,775,405,850,33.333333333333336,-0.878,-0.457,0.152
113996,1755606982205,59.97,-73.72,-48.58,787,778,779,375,844,50.0,-0.877,-0.454,0.154
114026,1755606982235,60.02,-73.61,-48.62,783,772,779,407,848,33.333333333333336,-0.877,-0.455,0.149
114085,1755606982294,59.98,-73.64,-48.65,786,776,779,345,848,33.333333333333336,-0.877,-0.458,0.142
114114,1755606982324,60.01,-73.65,-48.67,789,774,778,370,852,34.48275862068966,-0.878,-0.458,0.147
114144,1755606982353,59.94,-73.59,-48.66,784,776,775,405,843,33.333333333333336,-0.878,-0.458,0.147
114203,1755606982412,59.99,-73.55,-48.69,783,771,777,357,851,33.333333333333336,-0.877,-0.46,0.151
114233,1755606982443,60.04,-73.55,-48.7,784,773,778,349,843,33.333333333333336,-0.878,-0.458,0.151
114253,1755606982462,60.03,-73.57,-48.69,784,776,779,381,851,50.0,-0.877,-0.457,0.151
114283,1755606982492,60.11,-73.58,-48.72,785,771,780,368,849,33.333333333333336,-0.878,-0.458,0.149
114312,1755606982521,60.13,-73.57,-48.73,786,769,778,401,850,34.48275862068966,-0.876,-0.46,0.148
114342,1755606982551,60.14,-73.68,-48.75,785,772,779,409,846,33.333333333333336,-0.877,-0.461,0.15
114371,1755606982580,60.17,-73.61,-48.75,785,776,781,382,846,34.48275862068966,-0.877,-0.46,0.151
114401,1755606982610,60.21,-73.47,-48.75,784,774,782,351,847,33.333333333333336,-0.878,-0.46,0.149
114430,1755606982640,60.21,-73.42,-48.76,787,778,782,371,845,34.48275862068966,-0.877,-0.461,0.147
114460,1755606982669,60.14,-73.39,-48.75,778,776,781,408,844,33.333333333333336,-0.878,-0.464,0.146
114490,1755606982699,60.15,-73.34,-48.76,783,777,776,406,849,33.333333333333336,-0.876,-0.462,0.144
114520,1755606982729,60.16,-73.23,-48.8,785,780,777,361,849,33.333333333333336,-0.877,-0.458,0.145
114540,1755606982749,60.11,-73.17,-48.8,779,774,782,396,858,50.0,-0.879,-0.458,0.146
114569,1755606982778,60.03,-73.09,-48.78,785,773,782,357,850,34.48275862068966,-0.877,-0.461,0.146
114599,1755606982809,60.06,-73.01,-48.78,778,769,780,356,848,33.333333333333336,-0.878,-0.464,0.146
114649,1755606982858,59.91,-73.0,-48.74,786,774,788,370,845,33.333333333333336,-0.878,-0.461,0.142
114679,1755606982888,59.73,-72.96,-48.71,782,768,779,406,848,33.333333333333336,-0.878,-0.461,0.145
114708,1755606982917,59.77,-73.02,-48.73,777,776,783,422,845,34.48275862068966,-0.878,-0.461,0.152
114738,1755606982947,59.79,-72.97,-48.74,783,777,782,382,853,33.333333333333336,-0.876,-0.462,0.158
114767,1755606982977,59.76,-72.88,-48.72,778,769,780,342,844,34.48275862068966,-0.876,-0.461,0.158
114797,1755606983006,59.79,-72.84,-48.72,782,769,779,382,844,33.333333333333336,-0.876,-0.46,0.158
114827,1755606983036,59.81,-72.78,-48.72,780,769,776,416,850,33.333333333333336,-0.877,-0.459,0.157
114856,1755606983065,59.74,-72.82,-48.72,785,770,782,410,852,34.48275862068966,-0.875,-0.46,0.156
114886,1755606983095,59.7,-72.84,-48.71,785,771,778,372,844,33.333333333333336,-0.875,-0.46,0.161
114915,1755606983125,59.71,-72.82,-48.69,784,778,780,364,844,34.48275862068966,-0.875,-0.459,0.162
114945,1755606983154,59.75,-72.79,-48.7,783,773,782,401,846,33.333333333333336,-0.875,-0.458,0.162
114974,1755606983183,59.75,-72.79,-48.69,780,775,777,406,848,34.48275862068966,-0.875,-0.46,0.161
115004,1755606983213,59.76,-72.76,-48.68,780,776,780,381,856,33.333333333333336,-0.875,-0.46,0.16
115033,1755606983242,59.8,-72.78,-48.68,781,767,777,343,847,34.48275862068966,-0.876,-0.459,0.158
115063,1755606983272,59.8,-72.82,-48.66,781,776,780,391,847,33.333333333333336,-0.875,-0.459,0.156
115093,1755606983302,59.76,-72.81,-48.64,785,768,777,402,842,33.333333333333336,-0.875,-0.459,0.161
115122,1755606983331,59.84,-72.78,-48.66,785,777,781,394,857,34.48275862068966,-0.875,-0.457,0.161
115152,1755606983361,59.93,-72.77,-48.69,785,769,778,360,848,33.333333333333336,-0.876,-0.456,0.158
115182,1755606983391,59.88,-72.77,-48.68,780,773,780,369,849,33.333333333333336,-0.875,-0.458,0.156
115211,1755606983421,59.87,-72.82,-48.68,785,786,780,412,849,34.48275862068966,-0.876,-0.46,0.155
115241,1755606983451,59.86,-72.8,-48.68,787,768,778,415,850,33.333333333333336,-0.875,-0.458,0.156
115271,1755606983480,59.85,-72.73,-48.68,787,776,780,370,844,33.333333333333336,-0.875,-0.455,0.159
115301,1755606983510,59.87,-72.7,-48.72,785,773,777,337,846,33.333333333333336,-0.875,-0.459,0.158
115360,1755606983569,59.92,-72.65,-48.73,784,779,779,406,846,33.333333333333336,-0.875,-0.459,0.158
115389,1755606983598,59.98,-72.6,-48.77,780,765,782,409,848,34.48275862068966,-0.875,-0.459,0.157
115419,1755606983628,60.0,-72.6,-48.78,786,768,781,364,844,33.333333333333336,-0.876,-0.46,0.153
115449,1755606983658,59.98,-72.6,-48.79,787,774,781,351,848,33.333333333333336,-0.876,-0.461,0.152
115478,1755606983687,59.94,-72.52,-48.8,787,766,778,409,848,34.48275862068966,-0.875,-0.46,0.154
115508,1755606983717,60.01,-72.49,-48.82,783,774,781,407,848,33.333333333333336,-0.875,-0.463,0.156
115537,1755606983746,60.04,-72.47,-48.82,784,774,781,363,851,34.48275862068966,-0.875,-0.463,0.155
115596,1755606983805,59.97,-72.46,-48.83,782,773,775,381,848,33.333333333333336,-0.875,-0.461,0.153
115625,1755606983834,60.0,-72.42,-48.84,782,775,781,417,855,34.48275862068966,-0.874,-0.462,0.157
115655,1755606983864,60.01,-72.41,-48.84,783,793,780,373,855,33.333333333333336,-0.874,-0.462,0.157
115685,1755606983894,60.0,-72.33,-48.82,780,777,779,326,846,33.333333333333336,-0.874,-0.461,0.155
115714,1755606983923,60.02,-72.31,-48.83,785,777,780,368,854,34.48275862068966,-0.875,-0.461,0.154
115744,1755606983953,60.02,-72.36,-48.85,780,773,775,399,846,33.333333333333336,-0.875,-0.461,0.154
115773,1755606983983,60.0,-72.36,-48.85,784,773,780,353,847,34.48275862068966,-0.874,-0.461,0.157
115803,1755606984012,59.99,-72.29,-48.85,786,771,782,332,850,33.333333333333336,-0.874,-0.461,0.156
115833,1755606984042,60.01,-72.24,-48.85,784,770,779,326,841,33.333333333333336,-0.874,-0.461,0.155
115862,1755606984071,60.01,-72.19,-48.84,785,773,780,374,847,34.48275862068966,-0.875,-0.461,0.156
115892,1755606984101,59.98,-72.21,-48.84,782,768,776,391,845,33.333333333333336,-0.874,-0.462,0.155
115921,1755606984130,60.0,-72.24,-48.85,784,774,776,361,856,34.48275862068966,-0.875,-0.46,0.155
115981,1755606984190,59.99,-72.21,-48.85,785,775,775,348,847,33.333333333333336,-0.875,-0.461,0.157
116010,1755606984220,60.01,-72.18,-48.86,786,775,778,393,846,34.48275862068966,-0.874,-0.462,0.157
116030,1755606984240,60.04,-72.17,-48.86,783,774,775,344,860,50.0,-0.875,-0.464,0.157
116060,1755606984269,60.06,-72.18,-48.86,778,774,779,406,846,33.333333333333336,-0.874,-0.462,0.155
116089,1755606984299,60.02,-72.22,-48.85,783,774,780,387,853,34.48275862068966,-0.876,-0.46,0.155
116119,1755606984328,60.02,-72.18,-48.84,787,775,777,358,849,33.333333333333336,-0.875,-0.461,0.158
116149,1755606984358,60.08,-72.18,-48.86,785,774,778,344,848,33.333333333333336,-0.876,-0.461,0.157
116178,1755606984387,60.09,-72.2,-48.85,780,778,773,390,850,34.48275862068966,-0.874,-0.46,0.157
116208,1755606984417,60.05,-72.19,-48.84,785,777,776,389,853,33.333333333333336,-0.876,-0.46,0.155
116237,1755606984446,60.05,-72.13,-48.84,781,776,780,369,854,34.48275862068966,-0.874,-0.463,0.157
116267,1755606984476,60.06,-72.1,-48.83,784,773,779,353,847,33.333333333333336,-0.875,-0.46,0.157
116297,1755606984506,60.09,-72.1,-48.85,786,772,778,385,848,33.333333333333336,-0.876,-0.46,0.156
116356,1755606984565,60.1,-72.08,-48.86,785,775,778,402,847,33.333333333333336,-0.875,-0.461,0.154
116386,1755606984595,60.06,-72.06,-48.86,784,773,783,355,847,33.333333333333336,-0.875,-0.46,0.156
116415,1755606984624,60.08,-72.03,-48.87,785,773,776,359,849,34.48275862068966,-0.875,-0.46,0.156
116445,1755606984654,60.12,-71.98,-48.9,785,775,781,407,851,33.333333333333336,-0.875,-0.461,0.154
116474,1755606984683,60.08,-72.0,-48.89,784,778,774,393,844,34.48275862068966,-0.875,-0.462,0.154
116504,1755606984713,60.06,-72.01,-48.88,785,779,780,372,850,33.333333333333336,-0.875,-0.462,0.157
116533,1755606984742,60.07,-71.99,-48.89,781,773,779,364,847,34.48275862068966,-0.875,-0.459,0.156
116563,1755606984772,60.1,-71.97,-48.91,780,775,782,388,841,33.333333333333336,-0.874,-0.462,0.158
116592,1755606984802,60.12,-71.98,-48.91,785,784,782,411,847,34.48275862068966,-0.875,-0.462,0.155
116622,1755606984831,60.1,-71.98,-48.92,784,776,780,384,852,33.333333333333336,-0.875,-0.46,0.154
116652,1755606984861,60.08,-71.97,-48.92,784,777,782,348,848,33.333333333333336,-0.875,-0.46,0.156
116681,1755606984890,60.12,-71.95,-48.92,784,768,776,354,854,34.48275862068966,-0.873,-0.461,0.156
116711,1755606984920,60.12,-71.96,-48.92,784,773,779,395,842,33.333333333333336,-0.874,-0.461,0.156
116741,1755606984950,60.14,-71.92,-48.92,778,772,779,399,846,33.333333333333336,-0.875,-0.461,0.154
116771,1755606984980,60.13,-71.89,-48.93,780,769,774,347,845,33.333333333333336,-0.876,-0.461,0.153
116800,1755606985009,60.12,-71.87,-48.94,783,772,776,352,849,34.48275862068966,-0.874,-0.462,0.154
116829,1755606985038,60.12,-71.86,-48.94,782,776,782,403,844,34.48275862068966,-0.875,-0.461,0.156
116859,1755606985068,60.1,-71.84,-48.96,785,768,779,409,846,33.333333333333336,-0.874,-0.459,0.156
116888,1755606985098,60.08,-71.81,-48.99,786,782,781,387,846,34.48275862068966,-0.875,-0.462,0.156
116918,1755606985128,60.11,-71.8,-48.99,782,776,779,352,841,33.333333333333336,-0.874,-0.464,0.156
116948,1755606985157,60.12,-71.83,-48.99,782,774,778,360,848,33.333333333333336,-0.875,-0.462,0.153
116977,1755606985187,60.08,-71.88,-48.99,785,775,774,401,845,34.48275862068966,-0.875,-0.46,0.154
117007,1755606985216,60.03,-71.9,-48.99,783,774,778,412,852,33.333333333333336,-0.874,-0.462,0.158
117037,1755606985246,60.06,-71.84,-49.0,779,769,780,377,848,33.333333333333336,-0.873,-0.462,0.161
117066,1755606985275,60.13,-71.78,-49.01,785,774,777,349,845,34.48275862068966,-0.874,-0.46,0.159
117096,1755606985305,60.14,-71.78,-49.03,783,773,779,395,841,33.333333333333336,-0.876,-0.46,0.157
117125,1755606985334,60.14,-71.8,-49.05,783,784,778,409,842,34.48275862068966,-0.875,-0.461,0.158
117155,1755606985364,60.12,-71.81,-49.07,785,775,781,383,853,33.333333333333336,-0.875,-0.463,0.156
117184,1755606985394,60.17,-71.83,-49.08,781,777,780,363,849,34.48275862068966,-0.874,-0.463,0.159
117204,1755606985414,60.2,-71.81,-49.09,780,778,780,377,843,50.0,-0.874,-0.461,0.16
117234,1755606985443,60.17,-71.8,-49.1,779,776,780,362,845,33.333333333333336,-0.875,-0.462,0.157
117264,1755606985473,60.17,-71.79,-49.1,786,774,780,380,846,33.333333333333336,-0.874,-0.464,0.156
117293,1755606985503,60.17,-71.83,-49.11,783,769,779,397,844,34.48275862068966,-0.873,-0.464,0.156
117323,1755606985532,60.19,-71.82,-49.13,787,774,782,392,853,33.333333333333336,-0.874,-0.462,0.155
117353,1755606985562,60.12,-71.82,-49.13,783,776,776,320,851,33.333333333333336,-0.874,-0.461,0.155
117383,1755606985592,60.12,-71.84,-49.15,783,774,780,346,845,33.333333333333336,-0.873,-0.463,0.157
117412,1755606985622,60.15,-71.86,-49.18,786,779,781,379,847,34.48275862068966,-0.873,-0.465,0.157
117442,1755606985651,60.17,-71.83,-49.18,784,773,778,400,843,33.333333333333336,-0.875,-0.464,0.156
117472,1755606985681,60.16,-71.82,-49.19,779,768,782,339,850,33.333333333333336,-0.874,-0.464,0.16
117501,1755606985710,60.2,-71.81,-49.21,784,774,777,335,846,34.48275862068966,-0.873,-0.464,0.163
117531,1755606985740,60.3,-71.78,-49.24,783,775,779,360,846,33.333333333333336,-0.874,-0.464,0.159
117561,1755606985770,60.28,-71.75,-49.24,784,774,782,392,848,33.333333333333336,-0.873,-0.467,0.156
117590,1755606985800,60.33,-71.77,-49.23,784,773,780,382,844,34.48275862068966,-0.874,-0.467,0.152
117620,1755606985829,60.33,-71.83,-49.23,781,773,779,357,856,33.333333333333336,-0.873,-0.467,0.151
117650,1755606985859,60.39,-71.92,-49.24,783,778,775,355,845,33.333333333333336,-0.875,-0.467,0.155
117679,1755606985888,60.41,-71.91,-49.24,778,775,779,388,848,34.48275862068966,-0.873,-0.464,0.158
117708,1755606985918,60.47,-71.9,-49.25,784,779,780,407,842,34.48275862068966,-0.874,-0.466,0.156
117738,1755606985947,60.53,-71.92,-49.25,783,770,785,383,845,33.333333333333336,-0.874,-0.466,0.15
117768,1755606985977,60.49,-71.97,-49.26,785,773,780,349,840,33.333333333333336,-0.875,-0.463,0.147
117827,1755606986036,60.6,-72.09,-49.29,786,777,779,413,842,34.48275862068966,-0.874,-0.468,0.152
117857,1755606986066,60.65,-72.08,-49.28,786,772,783,404,844,33.333333333333336,-0.874,-0.467,0.149
117886,1755606986096,60.64,-72.05,-49.27,784,765,778,365,842,34.48275862068966,-0.874,-0.465,0.141
117916,1755606986125,60.53,-72.15,-49.28,783,776,784,364,845,33.333333333333336,-0.875,-0.467,0.138
117946,1755606986155,60.52,-72.25,-49.28,784,770,778,387,846,33.333333333333336,-0.874,-0.469,0.145
117975,1755606986184,60.52,-72.2,-49.29,785,781,780,406,845,34.48275862068966,-0.873,-0.467,0.15
118005,1755606986214,60.64,-72.19,-49.35,783,773,781,376,845,33.333333333333336,-0.875,-0.464,0.149
118034,1755606986243,60.6,-72.16,-49.35,782,779,778,365,850,34.48275862068966,-0.875,-0.465,0.146
118064,1755606986273,60.52,-72.17,-49.34,785,775,778,379,843,33.333333333333336,-0.875,-0.469,0.144
118093,1755606986303,60.51,-72.2,-49.35,782,775,784,413,843,34.48275862068966,-0.875,-0.467,0.143
118123,1755606986332,60.54,-72.27,-49.39,778,774,781,388,846,33.333333333333336,-0.875,-0.465,0.146
118152,1755606986362,60.51,-72.29,-49.4,786,784,779,351,855,34.48275862068966,-0.874,-0.469,0.15
118182,1755606986392,60.52,-72.23,-49.4,781,776,780,364,845,33.333333333333336,-0.875,-0.468,0.147
