timestamp_ms,recv_timestamp_ms,pitch,roll,yaw,flex1,flex2,flex3,flex4,flex5,sampling_hz,accel_x,accel_y,accel_z
118212,1755606986951,60.48,-72.19,-49.39,785,772,778,405,848,33.333333333333336,-0.875,-0.467,0.144
118242,1755606986954,60.45,-72.18,-49.39,783,773,779,406,848,33.333333333333336,-0.874,-0.465,0.144
118271,1755606986955,60.43,-72.24,-49.41,786,774,783,368,845,34.48275862068966,-0.874,-0.467,0.145
118301,1755606986958,60.45,-72.22,-49.43,783,776,781,352,852,33.333333333333336,-0.874,-0.468,0.147
118330,1755606986959,60.46,-72.2,-49.45,783,774,779,338,849,34.48275862068966,-0.874,-0.466,0.146
118350,1755606986961,60.44,-72.21,-49.46,783,783,782,333,845,50.0,-0.875,-0.466,0.143
118380,1755606986964,60.4,-72.21,-49.46,784,775,782,367,847,33.333333333333336,-0.874,-0.469,0.143
118409,1755606986965,60.36,-72.23,-49.45,783,776,781,403,843,34.48275862068966,-0.873,-0.469,0.145
118429,1755606986967,60.37,-72.24,-49.45,782,777,782,380,852,50.0,-0.873,-0.468,0.146
118459,1755606986970,60.39,-72.27,-49.49,783,774,776,403,841,33.333333333333336,-0.873,-0.466,0.147
118489,1755606986972,60.39,-72.22,-49.49,783,772,780,396,850,33.333333333333336,-0.873,-0.467,0.146
118509,1755606986974,60.35,-72.23,-49.5,785,779,776,398,846,50.0,-0.872,-0.468,0.146
118538,1755606986976,60.36,-72.26,-49.52,785,773,781,375,835,34.48275862068966,-0.872,-0.468,0.146
118568,1755606986978,60.32,-72.23,-49.53,779,774,780,331,845,33.333333333333336,-0.872,-0.467,0.147
118597,1755606986980,60.29,-72.19,-49.54,784,771,783,351,849,34.48275862068966,-0.873,-0.468,0.147
118627,1755606986982,60.24,-72.15,-49.55,784,773,779,403,841,33.333333333333336,-0.872,-0.47,0.149
118657,1755606986985,60.24,-72.1,-49.54,779,764,781,405,849,33.333333333333336,-0.873,-0.468,0.15
118687,1755606986987,60.21,-72.12,-49.53,785,770,779,378,843,33.333333333333336,-0.873,-0.467,0.148
118717,1755606986989,60.21,-72.12,-49.52,780,769,775,357,836,33.333333333333336,-0.873,-0.467,0.149
118746,1755606986991,60.15,-72.05,-49.49,776,768,781,389,847,34.48275862068966,-0.869,-0.469,0.152
118776,1755606986992,60.14,-71.97,-49.47,786,773,777,361,843,33.333333333333336,-0.871,-0.469,0.153
118805,1755606987014,60.16,-72.0,-49.49,785,778,783,369,850,34.48275862068966,-0.873,-0.468,0.151
118835,1755606987044,60.09,-72.05,-49.47,784,776,779,348,849,33.333333333333336,-0.872,-0.469,0.153
118864,1755606987074,60.11,-72.01,-49.46,784,774,781,365,837,34.48275862068966,-0.872,-0.47,0.153
118894,1755606987103,60.0,-71.95,-49.41,781,775,779,401,844,33.333333333333336,-0.871,-0.468,0.15
118924,1755606987133,60.01,-72.01,-49.44,785,777,780,388,848,33.333333333333336,-0.873,-0.468,0.149
118953,1755606987162,60.01,-72.01,-49.45,784,774,781,354,840,34.48275862068966,-0.873,-0.465,0.152
118983,1755606987192,60.04,-71.97,-49.46,785,775,779,350,849,33.333333333333336,-0.872,-0.466,0.153
119012,1755606987222,60.09,-71.95,-49.48,779,768,775,379,845,34.48275862068966,-0.873,-0.466,0.151
119042,1755606987252,60.04,-71.92,-49.5,780,776,781,407,845,33.333333333333336,-0.873,-0.468,0.152
119072,1755606987281,60.06,-71.92,-49.51,781,767,779,388,838,33.333333333333336,-0.873,-0.467,0.152
119102,1755606987311,60.04,-71.93,-49.51,784,774,783,348,847,33.333333333333336,-0.872,-0.466,0.151
119131,1755606987340,60.01,-71.96,-49.53,785,774,783,346,844,34.48275862068966,-0.872,-0.465,0.151
119161,1755606987370,60.03,-71.96,-49.55,780,775,778,387,843,33.333333333333336,-0.872,-0.467,0.152
119190,1755606987400,60.0,-71.94,-49.55,786,774,780,358,849,34.48275862068966,-0.872,-0.468,0.154
119220,1755606987429,59.94,-72.0,-49.55,778,778,778,353,846,33.333333333333336,-0.871,-0.467,0.153
119250,1755606987459,59.88,-71.99,-49.53,776,774,779,355,841,33.333333333333336,-0.872,-0.466,0.154
119279,1755606987489,59.87,-72.01,-49.56,783,776,779,377,844,34.48275862068966,-0.873,-0.469,0.15
119309,1755606987518,59.83,-72.01,-49.56,785,773,781,395,846,33.333333333333336,-0.87,-0.47,0.152
119339,1755606987548,59.87,-72.02,-49.58,781,769,780,390,843,33.333333333333336,-0.871,-0.468,0.154
119368,1755606987577,59.82,-72.03,-49.59,784,775,782,362,839,34.48275862068966,-0.871,-0.466,0.155
119398,1755606987607,59.83,-71.97,-49.6,783,776,779,359,843,33.333333333333336,-0.871,-0.469,0.157
119427,1755606987637,59.83,-71.89,-49.58,781,780,779,395,850,34.48275862068966,-0.871,-0.47,0.156
119457,1755606987666,59.83,-71.87,-49.59,782,773,782,408,846,33.333333333333336,-0.872,-0.466,0.154
119487,1755606987696,59.84,-71.9,-49.61,782,776,782,367,841,33.333333333333336,-0.871,-0.468,0.153
119516,1755606987726,59.83,-71.96,-49.62,784,775,780,354,846,34.48275862068966,-0.871,-0.468,0.154
119546,1755606987755,59.8,-71.99,-49.62,783,774,782,391,848,33.333333333333336,-0.871,-0.468,0.158
119575,1755606987785,59.81,-71.92,-49.62,780,772,783,388,846,34.48275862068966,-0.871,-0.468,0.16
119605,1755606987814,59.83,-71.88,-49.61,785,774,779,358,843,33.333333333333336,-0.87,-0.468,0.159
119634,1755606987844,59.83,-71.89,-49.61,782,769,781,302,842,34.48275862068966,-0.87,-0.468,0.156
119664,1755606987873,59.8,-71.87,-49.6,781,768,783,349,847,33.333333333333336,-0.87,-0.467,0.156
119694,1755606987903,59.81,-71.92,-49.62,781,774,774,382,845,33.333333333333336,-0.87,-0.467,0.156
119723,1755606987933,59.83,-71.92,-49.63,780,775,778,394,837,34.48275862068966,-0.871,-0.469,0.156
119753,1755606987963,59.83,-71.87,-49.62,784,775,785,346,844,33.333333333333336,-0.87,-0.469,0.155
119783,1755606987992,59.85,-71.88,-49.63,784,775,782,350,841,33.333333333333336,-0.871,-0.468,0.152
119812,1755606988022,59.83,-71.94,-49.64,780,775,778,388,840,34.48275862068966,-0.87,-0.469,0.152
119842,1755606988051,59.84,-71.95,-49.65,782,773,781,399,849,33.333333333333336,-0.87,-0.47,0.156
119871,1755606988081,59.84,-71.95,-49.64,783,774,780,369,843,34.48275862068966,-0.869,-0.468,0.154
119930,1755606988140,59.81,-71.93,-49.64,780,777,778,362,842,34.48275862068966,-0.87,-0.469,0.155
119960,1755606988169,59.8,-71.9,-49.63,783,775,776,403,846,33.333333333333336,-0.869,-0.469,0.156
119990,1755606988199,59.82,-71.87,-49.65,781,771,780,391,845,33.333333333333336,-0.87,-0.467,0.156
120010,1755606988219,59.81,-71.85,-49.65,782,771,781,385,840,50.0,-0.87,-0.468,0.156
120039,1755606988249,59.85,-71.85,-49.66,784,774,776,341,843,34.48275862068966,-0.871,-0.468,0.156
120059,1755606988269,59.83,-71.81,-49.66,785,781,781,359,845,50.0,-0.871,-0.468,0.156
120089,1755606988298,59.82,-71.82,-49.65,782,773,783,348,838,33.333333333333336,-0.871,-0.468,0.156
120118,1755606988328,59.79,-71.83,-49.65,783,773,774,346,842,34.48275862068966,-0.872,-0.467,0.156
120148,1755606988357,59.8,-71.79,-49.66,781,776,783,347,846,33.333333333333336,-0.871,-0.468,0.158
120177,1755606988387,59.82,-71.77,-49.66,781,767,783,392,843,34.48275862068966,-0.87,-0.469,0.155
120207,1755606988416,59.84,-71.83,-49.67,783,773,776,404,846,33.333333333333336,-0.871,-0.468,0.154
120237,1755606988446,59.82,-71.84,-49.7,782,776,777,354,844,33.333333333333336,-0.871,-0.467,0.154
120266,1755606988475,59.82,-71.88,-49.72,782,770,783,330,845,34.48275862068966,-0.87,-0.47,0.155
120296,1755606988505,59.81,-71.86,-49.72,778,771,781,374,840,33.333333333333336,-0.869,-0.469,0.158
120325,1755606988534,59.8,-71.89,-49.73,787,774,783,389,846,34.48275862068966,-0.87,-0.47,0.157
120355,1755606988564,59.77,-71.92,-49.72,782,779,780,372,842,33.333333333333336,-0.869,-0.47,0.159
120384,1755606988593,59.75,-71.85,-49.71,783,770,783,349,848,34.48275862068966,-0.871,-0.469,0.162
120414,1755606988623,59.75,-71.76,-49.7,783,775,777,380,840,33.333333333333336,-0.87,-0.47,0.161
120444,1755606988653,59.79,-71.72,-49.7,783,768,776,391,842,33.333333333333336,-0.868,-0.471,0.159
120473,1755606988683,59.83,-71.69,-49.7,779,775,781,381,841,34.48275862068966,-0.87,-0.469,0.158
120503,1755606988712,59.85,-71.66,-49.69,781,776,779,352,839,33.333333333333336,-0.87,-0.466,0.158
120532,1755606988741,59.88,-71.67,-49.68,785,776,779,350,849,34.48275862068966,-0.871,-0.466,0.158
120562,1755606988771,59.87,-71.7,-49.68,780,767,776,398,842,33.333333333333336,-0.87,-0.467,0.158
120592,1755606988801,59.88,-71.64,-49.67,783,766,783,399,841,33.333333333333336,-0.871,-0.467,0.156
120621,1755606988831,59.84,-71.65,-49.68,776,775,778,364,842,34.48275862068966,-0.871,-0.467,0.154
120651,1755606988860,59.81,-71.68,-49.68,783,769,783,354,838,33.333333333333336,-0.87,-0.467,0.155
120680,1755606988890,59.83,-71.68,-49.69,781,777,780,366,841,34.48275862068966,-0.871,-0.468,0.157
120710,1755606988920,59.82,-71.69,-49.68,784,779,781,398,838,33.333333333333336,-0.87,-0.468,0.158
120740,1755606988949,59.82,-71.68,-49.7,782,774,775,378,841,33.333333333333336,-0.871,-0.467,0.156
120769,1755606988979,59.81,-71.72,-49.71,780,770,782,349,841,34.48275862068966,-0.871,-0.468,0.155
120799,1755606989008,59.8,-71.74,-49.71,780,775,781,342,844,33.333333333333336,-0.872,-0.469,0.157
120829,1755606989038,59.78,-71.74,-49.7,782,778,776,377,844,33.333333333333336,-0.87,-0.47,0.161
120858,1755606989068,59.85,-71.68,-49.69,781,767,781,402,844,34.48275862068966,-0.873,-0.468,0.161
120888,1755606989097,59.84,-71.6,-49.7,783,774,780,357,841,33.333333333333336,-0.873,-0.467,0.157
120918,1755606989127,59.84,-71.64,-49.71,785,774,779,349,842,33.333333333333336,-0.871,-0.469,0.156
120947,1755606989156,59.8,-71.66,-49.71,780,775,783,377,843,34.48275862068966,-0.87,-0.468,0.159
120977,1755606989186,59.83,-71.62,-49.71,784,772,779,405,845,33.333333333333336,-0.872,-0.467,0.161
121006,1755606989215,59.87,-71.6,-49.73,781,774,780,398,845,34.48275862068966,-0.87,-0.466,0.159
121036,1755606989245,59.84,-71.68,-49.74,784,775,779,343,844,33.333333333333336,-0.872,-0.468,0.155
121065,1755606989275,59.79,-71.67,-49.73,782,777,781,341,842,34.48275862068966,-0.87,-0.468,0.156
121095,1755606989304,59.79,-71.63,-49.74,781,769,775,382,841,33.333333333333336,-0.87,-0.466,0.156
121125,1755606989334,59.84,-71.67,-49.78,783,771,785,409,844,33.333333333333336,-0.871,-0.466,0.156
121154,1755606989364,59.8,-71.64,-49.76,781,774,773,385,844,34.48275862068966,-0.87,-0.469,0.155
121184,1755606989393,59.8,-71.66,-49.76,779,778,783,352,845,33.333333333333336,-0.87,-0.469,0.155
121214,1755606989423,59.8,-71.69,-49.77,781,775,780,375,851,33.333333333333336,-0.869,-0.468,0.16
121243,1755606989453,59.82,-71.63,-49.77,784,775,777,408,849,34.48275862068966,-0.871,-0.469,0.162
121273,1755606989482,59.85,-71.61,-49.76,778,772,779,403,841,33.333333333333336,-0.87,-0.467,0.159
121303,1755606989512,59.85,-71.6,-49.77,783,774,778,381,843,33.333333333333336,-0.871,-0.468,0.158
121332,1755606989541,59.85,-71.62,-49.77,782,773,783,363,836,34.48275862068966,-0.87,-0.469,0.159
121362,1755606989571,59.85,-71.61,-49.77,783,774,781,391,843,33.333333333333336,-0.871,-0.468,0.159
121391,1755606989600,59.88,-71.61,-49.77,781,774,780,409,842,34.48275862068966,-0.871,-0.467,0.156
121421,1755606989630,59.86,-71.65,-49.79,779,768,782,374,844,33.333333333333336,-0.871,-0.469,0.155
121450,1755606989659,59.86,-71.65,-49.79,782,776,780,351,844,34.48275862068966,-0.871,-0.471,0.156
121480,1755606989689,59.89,-71.63,-49.78,784,778,781,376,839,33.333333333333336,-0.87,-0.468,0.158
121510,1755606989719,59.89,-71.61,-49.79,780,772,784,402,843,33.333333333333336,-0.871,-0.468,0.156
121539,1755606989748,59.88,-71.62,-49.78,780,775,780,365,847,34.48275862068966,-0.872,-0.467,0.157
121569,1755606989778,59.84,-71.52,-49.76,777,772,781,341,839,33.333333333333336,-0.872,-0.468,0.158
121599,1755606989808,59.86,-71.48,-49.74,783,770,775,367,850,33.333333333333336,-0.87,-0.47,0.158
121628,1755606989838,59.86,-71.49,-49.75,781,775,779,395,837,34.48275862068966,-0.871,-0.469,0.156
121658,1755606989867,59.85,-71.49,-49.76,779,774,782,393,845,33.333333333333336,-0.871,-0.466,0.154
121687,1755606989897,59.8,-71.52,-49.77,784,768,781,328,841,34.48275862068966,-0.871,-0.466,0.155
121717,1755606989927,59.91,-71.6,-49.83,780,776,782,339,854,33.333333333333336,-0.869,-0.47,0.159
121747,1755606989956,59.97,-71.59,-49.83,783,774,777,326,842,33.333333333333336,-0.871,-0.467,0.159
121777,1755606989986,59.92,-71.61,-49.86,781,770,780,365,838,33.333333333333336,-0.872,-0.466,0.156
121806,1755606990016,59.88,-71.64,-49.91,778,770,777,376,842,34.48275862068966,-0.872,-0.472,0.157
121836,1755606990045,59.75,-71.62,-50.12,778,779,778,358,840,33.333333333333336,-0.869,-0.474,0.162
121866,1755606990075,59.51,-71.46,-50.44,780,771,777,309,841,33.333333333333336,-0.868,-0.472,0.169
121895,1755606990105,59.14,-71.11,-50.85,785,769,781,372,842,34.48275862068966,-0.867,-0.474,0.17
121925,1755606990134,58.56,-70.77,-51.19,780,774,779,378,840,33.333333333333336,-0.865,-0.481,0.171
121954,1755606990164,58.05,-70.53,-51.33,782,774,774,368,837,34.48275862068966,-0.861,-0.481,0.171
121984,1755606990194,57.8,-70.44,-51.5,779,777,783,341,841,33.333333333333336,-0.857,-0.479,0.169
122014,1755606990223,57.86,-70.53,-51.61,784,780,780,380,842,33.333333333333336,-0.857,-0.481,0.175
122043,1755606990253,57.88,-70.44,-51.63,786,776,773,405,838,34.48275862068966,-0.857,-0.49,0.184
122073,1755606990283,57.76,-70.45,-51.7,780,780,784,385,836,33.333333333333336,-0.853,-0.486,0.184
122103,1755606990313,57.62,-70.44,-51.8,784,772,779,353,835,33.333333333333336,-0.852,-0.489,0.192
122133,1755606990342,57.46,-70.32,-51.76,782,771,781,356,836,33.333333333333336,-0.849,-0.491,0.197
122162,1755606990371,57.27,-70.26,-51.63,785,777,778,375,840,34.48275862068966,-0.848,-0.491,0.198
122192,1755606990402,57.21,-70.22,-51.45,781,782,778,411,836,33.333333333333336,-0.847,-0.491,0.202
122212,1755606990422,57.22,-70.16,-51.33,784,773,778,371,840,50.0,-0.847,-0.491,0.202
122242,1755606990451,57.33,-70.17,-51.24,781,777,780,387,840,33.333333333333336,-0.847,-0.493,0.201
122272,1755606990481,57.49,-70.24,-51.13,783,776,781,366,834,33.333333333333336,-0.847,-0.491,0.203
122302,1755606990511,57.66,-70.27,-51.1,780,774,779,342,840,33.333333333333336,-0.847,-0.491,0.205
122361,1755606990571,57.72,-70.21,-51.19,783,777,778,389,841,33.333333333333336,-0.85,-0.487,0.202
122381,1755606990591,57.65,-70.13,-51.23,784,778,776,354,844,50.0,-0.849,-0.491,0.204
122411,1755606990620,57.59,-69.98,-51.24,781,769,780,405,843,33.333333333333336,-0.849,-0.493,0.204
122441,1755606990650,57.45,-69.88,-51.24,784,779,779,394,842,33.333333333333336,-0.849,-0.489,0.202
122470,1755606990680,57.58,-69.96,-51.27,778,774,781,362,836,34.48275862068966,-0.848,-0.49,0.203
122500,1755606990709,57.76,-69.97,-51.23,780,774,784,356,842,33.333333333333336,-0.849,-0.49,0.208
122529,1755606990738,57.84,-69.94,-51.16,782,774,780,364,840,34.48275862068966,-0.848,-0.49,0.206
122559,1755606990768,57.93,-69.89,-51.13,784,774,785,410,834,33.333333333333336,-0.849,-0.488,0.201
122619,1755606990828,57.86,-69.91,-51.18,779,774,779,362,845,33.333333333333336,-0.851,-0.489,0.198
122648,1755606990858,57.82,-69.82,-51.19,778,779,781,367,845,34.48275862068966,-0.849,-0.493,0.2
122678,1755606990887,57.91,-69.83,-51.18,780,775,779,405,834,33.333333333333336,-0.849,-0.488,0.202
122707,1755606990917,57.98,-69.77,-51.15,782,769,775,390,839,34.48275862068966,-0.851,-0.487,0.199
122737,1755606990947,58.16,-69.74,-51.08,782,775,777,322,841,33.333333333333336,-0.848,-0.489,0.192
122767,1755606990976,58.26,-69.86,-51.07,784,772,782,325,836,33.333333333333336,-0.85,-0.492,0.189
122796,1755606991006,58.23,-69.97,-51.04,782,777,780,377,838,34.48275862068966,-0.852,-0.489,0.191
122826,1755606991035,58.26,-69.95,-51.06,777,776,782,403,835,33.333333333333336,-0.851,-0.489,0.194
122856,1755606991065,58.38,-69.99,-51.12,783,773,777,389,850,33.333333333333336,-0.851,-0.49,0.197
122885,1755606991094,58.5,-69.94,-51.28,784,769,782,337,847,34.48275862068966,-0.851,-0.49,0.195
122915,1755606991124,58.68,-69.94,-51.43,781,775,782,349,845,33.333333333333336,-0.851,-0.491,0.191
122944,1755606991154,58.7,-69.96,-51.59,779,769,782,400,839,34.48275862068966,-0.853,-0.487,0.185
122974,1755606991184,58.65,-69.98,-51.73,779,782,776,406,840,33.333333333333336,-0.852,-0.491,0.184
123004,1755606991213,58.57,-69.93,-51.77,779,777,783,375,836,33.333333333333336,-0.851,-0.494,0.185
123033,1755606991243,58.47,-69.91,-51.74,781,770,779,341,840,34.48275862068966,-0.85,-0.494,0.185
123063,1755606991272,58.52,-69.97,-51.74,779,774,780,387,838,33.333333333333336,-0.849,-0.495,0.188
123092,1755606991301,58.64,-70.0,-51.69,783,776,779,413,839,34.48275862068966,-0.851,-0.493,0.187
123122,1755606991331,58.57,-69.99,-51.7,785,771,781,339,844,33.333333333333336,-0.851,-0.493,0.18
123151,1755606991360,58.56,-70.0,-51.68,783,769,775,332,841,34.48275862068966,-0.848,-0.501,0.178
123181,1755606991390,58.54,-70.09,-51.69,783,774,778,373,837,33.333333333333336,-0.849,-0.498,0.177
123210,1755606991420,58.41,-70.1,-51.76,777,773,775,409,841,34.48275862068966,-0.85,-0.496,0.177
123240,1755606991449,58.34,-70.0,-51.77,782,775,782,414,842,33.333333333333336,-0.849,-0.503,0.184
123270,1755606991479,58.58,-70.09,-51.73,782,775,782,368,830,33.333333333333336,-0.846,-0.501,0.184
123299,1755606991508,58.77,-70.18,-51.68,783,776,781,371,838,34.48275862068966,-0.85,-0.495,0.178
123329,1755606991538,58.73,-70.14,-51.59,781,779,782,380,839,33.333333333333336,-0.851,-0.496,0.173
123358,1755606991568,58.6,-70.27,-51.49,781,776,782,399,838,34.48275862068966,-0.849,-0.499,0.171
123388,1755606991597,58.45,-70.32,-51.33,784,771,777,326,835,33.333333333333336,-0.848,-0.501,0.178
123418,1755606991627,58.3,-70.21,-51.15,781,768,781,334,839,33.333333333333336,-0.851,-0.494,0.172
123447,1755606991657,58.27,-70.29,-51.13,777,776,782,359,850,34.48275862068966,-0.851,-0.497,0.175
123477,1755606991686,58.29,-70.32,-51.08,777,785,780,387,839,33.333333333333336,-0.852,-0.498,0.177
123506,1755606991716,58.22,-70.37,-51.02,783,775,776,388,837,34.48275862068966,-0.853,-0.495,0.172
123536,1755606991745,58.27,-70.43,-51.0,778,775,780,346,845,33.333333333333336,-0.853,-0.496,0.172
123566,1755606991775,58.21,-70.48,-50.91,782,774,781,349,839,33.333333333333336,-0.854,-0.496,0.177
123595,1755606991805,58.15,-70.48,-50.76,785,776,776,380,839,34.48275862068966,-0.855,-0.497,0.184
123654,1755606991864,58.31,-70.31,-50.53,784,777,781,379,832,34.48275862068966,-0.858,-0.483,0.178
123684,1755606991893,58.3,-70.3,-50.46,778,776,781,347,837,33.333333333333336,-0.861,-0.481,0.168
123713,1755606991923,58.4,-70.3,-50.35,778,768,782,381,841,34.48275862068966,-0.862,-0.486,0.166
123743,1755606991953,58.54,-70.36,-50.21,781,778,776,400,840,33.333333333333336,-0.859,-0.484,0.168
123773,1755606991983,58.57,-70.43,-50.1,786,771,781,383,834,33.333333333333336,-0.861,-0.476,0.168
123803,1755606992012,58.69,-70.44,-49.94,782,770,781,365,842,33.333333333333336,-0.862,-0.482,0.173
123833,1755606992042,58.87,-70.37,-49.76,778,777,779,362,838,33.333333333333336,-0.861,-0.479,0.173
123862,1755606992071,58.85,-69.93,-49.66,785,774,783,402,839,34.48275862068966,-0.861,-0.47,0.169
123891,1755606992101,58.84,-69.83,-49.68,788,774,775,423,840,34.48275862068966,-0.864,-0.467,0.168
123921,1755606992130,58.83,-69.71,-49.65,781,772,782,376,841,33.333333333333336,-0.865,-0.47,0.17
123951,1755606992160,58.84,-69.63,-49.66,783,774,776,346,838,33.333333333333336,-0.864,-0.468,0.17
123980,1755606992190,58.81,-69.59,-49.67,783,773,779,363,840,34.48275862068966,-0.868,-0.464,0.168
124010,1755606992220,58.88,-69.48,-49.69,783,781,779,390,837,33.333333333333336,-0.868,-0.464,0.17
124040,1755606992249,58.83,-69.4,-49.68,782,775,776,381,841,33.333333333333336,-0.869,-0.468,0.172
124070,1755606992279,58.84,-69.3,-49.66,782,776,777,348,837,33.333333333333336,-0.87,-0.466,0.172
124099,1755606992309,58.84,-69.21,-49.68,782,776,775,355,837,34.48275862068966,-0.87,-0.462,0.168
124129,1755606992338,58.89,-69.14,-49.71,783,777,781,396,838,33.333333333333336,-0.87,-0.465,0.169
124158,1755606992367,58.91,-69.1,-49.74,782,776,779,394,839,34.48275862068966,-0.869,-0.468,0.17
124188,1755606992397,58.89,-69.09,-49.75,783,777,782,375,838,33.333333333333336,-0.87,-0.465,0.171
124217,1755606992427,58.86,-69.07,-49.76,779,778,780,361,836,34.48275862068966,-0.872,-0.462,0.17
124247,1755606992456,58.9,-69.06,-49.83,784,768,781,372,839,33.333333333333336,-0.87,-0.466,0.173
124277,1755606992486,58.89,-69.02,-49.83,784,768,783,393,840,33.333333333333336,-0.87,-0.468,0.176
124306,1755606992516,58.9,-69.01,-49.84,783,775,777,379,838,34.48275862068966,-0.871,-0.464,0.176
124336,1755606992545,58.88,-68.97,-49.83,783,789,777,333,834,33.333333333333336,-0.871,-0.463,0.177
124366,1755606992575,58.88,-68.91,-49.83,783,776,779,338,834,33.333333333333336,-0.871,-0.464,0.177
124395,1755606992605,58.85,-68.87,-49.82,784,777,781,398,837,34.48275862068966,-0.87,-0.464,0.178
124425,1755606992634,58.9,-68.83,-49.82,783,774,784,419,839,33.333333333333336,-0.87,-0.465,0.179
124455,1755606992664,58.9,-68.82,-49.81,785,775,779,376,832,33.333333333333336,-0.871,-0.463,0.178
124484,1755606992694,58.89,-68.8,-49.81,779,775,782,349,844,34.48275862068966,-0.87,-0.462,0.18
124514,1755606992723,58.97,-68.8,-49.83,784,773,781,381,838,33.333333333333336,-0.869,-0.463,0.181
124543,1755606992753,58.97,-68.8,-49.84,782,775,779,406,836,34.48275862068966,-0.871,-0.463,0.179
124573,1755606992782,58.93,-68.8,-49.83,780,781,776,404,838,33.333333333333336,-0.871,-0.463,0.179
124603,1755606992812,58.88,-68.73,-49.81,782,776,781,360,831,33.333333333333336,-0.87,-0.463,0.183
124633,1755606992842,58.88,-68.65,-49.78,782,778,778,324,833,33.333333333333336,-0.868,-0.461,0.182
124662,1755606992872,58.98,-68.55,-49.81,782,772,780,371,843,34.48275862068966,-0.87,-0.461,0.181
124692,1755606992901,58.91,-68.49,-49.79,784,767,775,378,833,33.333333333333336,-0.867,-0.463,0.182
124721,1755606992931,59.01,-68.5,-49.8,782,774,775,372,840,34.48275862068966,-0.869,-0.463,0.183
124751,1755606992960,59.02,-68.46,-49.8,781,774,783,351,838,33.333333333333336,-0.869,-0.458,0.18
124780,1755606992989,59.05,-68.51,-49.85,780,776,779,380,841,34.48275862068966,-0.871,-0.458,0.177
124810,1755606993019,59.02,-68.54,-49.83,780,767,781,406,838,33.333333333333336,-0.87,-0.463,0.182
124839,1755606993049,59.04,-68.55,-49.83,780,777,780,383,836,34.48275862068966,-0.869,-0.461,0.186
124860,1755606993069,59.1,-68.5,-49.84,782,770,781,395,837,47.61904761904762,-0.869,-0.461,0.187
124889,1755606993099,59.17,-68.51,-49.86,780,773,779,381,841,34.48275862068966,-0.869,-0.459,0.183
124919,1755606993128,59.13,-68.53,-49.86,784,767,779,363,841,33.333333333333336,-0.872,-0.459,0.181
124949,1755606993158,59.14,-68.58,-49.87,787,775,783,370,847,33.333333333333336,-0.869,-0.461,0.184
124978,1755606993187,59.22,-68.67,-49.9,778,774,779,407,836,34.48275862068966,-0.871,-0.46,0.181
125008,1755606993218,59.18,-68.71,-49.9,781,780,776,400,832,33.333333333333336,-0.871,-0.459,0.178
125028,1755606993237,59.08,-68.73,-49.9,781,781,776,373,832,50.0,-0.869,-0.459,0.178
125057,1755606993267,58.86,-68.67,-49.86,783,780,782,403,837,34.48275862068966,-0.868,-0.467,0.189
125078,1755606993287,58.81,-68.64,-49.83,777,777,781,376,841,47.61904761904762,-0.864,-0.472,0.201
125107,1755606993316,58.85,-68.52,-49.74,785,772,781,387,839,34.48275862068966,-0.864,-0.466,0.207
125137,1755606993346,58.98,-68.34,-49.73,776,776,783,355,837,33.333333333333336,-0.865,-0.46,0.21
125166,1755606993375,58.95,-68.06,-49.62,782,769,781,356,840,34.48275862068966,-0.864,-0.464,0.211
125196,1755606993405,59.23,-67.94,-49.56,782,776,776,401,838,33.333333333333336,-0.863,-0.461,0.21
125225,1755606993435,59.54,-67.91,-49.53,781,770,779,420,839,34.48275862068966,-0.865,-0.451,0.194
125255,1755606993464,60.03,-68.26,-49.65,783,777,783,388,833,33.333333333333336,-0.875,-0.442,0.168
125284,1755606993494,60.07,-68.23,-49.66,777,769,781,343,839,34.48275862068966,-0.876,-0.452,0.16
125314,1755606993523,59.97,-68.22,-49.64,782,776,775,376,842,33.333333333333336,-0.873,-0.457,0.165
125343,1755606993553,59.92,-68.26,-49.64,780,769,780,398,835,34.48275862068966,-0.875,-0.45,0.169
125373,1755606993582,60.05,-68.28,-49.67,785,770,774,395,839,33.333333333333336,-0.876,-0.447,0.177
125432,1755606993642,60.12,-67.81,-49.63,784,774,782,358,834,33.333333333333336,-0.873,-0.456,0.184
125462,1755606993671,60.21,-67.53,-49.67,783,778,781,397,836,33.333333333333336,-0.874,-0.452,0.181
125492,1755606993701,59.74,-66.87,-50.43,784,777,778,392,839,33.333333333333336,-0.869,-0.467,0.189
125521,1755606993730,57.74,-65.88,-51.85,775,773,780,364,840,34.48275862068966,-0.864,-0.477,0.203
125551,1755606993760,55.44,-65.06,-52.83,777,773,776,343,833,33.333333333333336,-0.86,-0.478,0.222
125580,1755606993790,54.59,-64.62,-53.21,785,773,784,362,831,34.48275862068966,-0.851,-0.475,0.233
125610,1755606993819,54.34,-64.27,-53.39,775,772,784,394,835,33.333333333333336,-0.846,-0.47,0.243
125640,1755606993849,54.11,-63.89,-53.67,786,777,783,390,841,33.333333333333336,-0.842,-0.468,0.244
125669,1755606993880,54.07,-63.71,-53.98,778,772,781,356,836,34.48275862068966,-0.838,-0.476,0.248
125690,1755606993899,54.17,-63.65,-54.03,783,776,780,401,835,47.61904761904762,-0.836,-0.486,0.254
125719,1755606993928,54.34,-63.66,-53.8,780,774,780,370,851,34.48275862068966,-0.833,-0.494,0.257
125749,1755606993958,54.47,-63.78,-53.66,783,774,779,325,836,33.333333333333336,-0.828,-0.487,0.261
125778,1755606993988,54.65,-63.99,-53.72,783,781,782,397,831,34.48275862068966,-0.825,-0.489,0.276
125837,1755606994047,54.72,-63.87,-53.91,781,779,778,368,833,34.48275862068966,-0.818,-0.494,0.291
125896,1755606994106,54.41,-63.49,-54.33,783,776,777,387,839,34.48275862068966,-0.814,-0.505,0.3
125926,1755606994135,54.24,-63.25,-54.5,778,779,782,403,840,33.333333333333336,-0.814,-0.502,0.299
125956,1755606994165,54.03,-63.09,-54.75,784,772,781,383,838,33.333333333333336,-0.81,-0.503,0.302
125985,1755606994194,54.0,-62.94,-54.9,783,774,779,342,840,34.48275862068966,-0.809,-0.508,0.304
126015,1755606994224,53.59,-62.72,-55.0,778,780,780,372,832,33.333333333333336,-0.806,-0.507,0.303
126044,1755606994254,53.41,-62.68,-55.07,781,774,777,398,839,34.48275862068966,-0.801,-0.513,0.309
126074,1755606994283,53.27,-62.61,-55.35,783,775,782,358,832,33.333333333333336,-0.797,-0.514,0.316
126104,1755606994313,52.98,-62.43,-55.85,781,777,781,337,845,33.333333333333336,-0.793,-0.516,0.322
126133,1755606994343,52.79,-62.29,-56.22,780,775,780,297,837,34.48275862068966,-0.793,-0.52,0.325
126163,1755606994373,52.53,-62.05,-56.3,783,775,778,360,832,33.333333333333336,-0.792,-0.522,0.33
126193,1755606994402,52.39,-61.96,-56.17,781,774,776,387,833,33.333333333333336,-0.784,-0.529,0.336
126213,1755606994422,52.4,-61.86,-56.15,781,777,779,363,838,50.0,-0.783,-0.532,0.341
126243,1755606994452,52.45,-61.68,-56.21,783,778,777,387,840,33.333333333333336,-0.781,-0.527,0.335
126272,1755606994481,52.5,-61.7,-56.26,781,778,781,369,835,34.48275862068966,-0.782,-0.528,0.335
126302,1755606994511,52.47,-61.69,-56.32,783,774,778,364,840,33.333333333333336,-0.782,-0.531,0.335
126331,1755606994541,52.31,-61.59,-56.45,778,775,781,373,835,34.48275862068966,-0.779,-0.534,0.339
126361,1755606994570,52.19,-61.49,-56.54,779,784,783,410,837,33.333333333333336,-0.779,-0.531,0.343
126391,1755606994600,52.07,-61.34,-56.69,782,771,780,421,839,33.333333333333336,-0.778,-0.534,0.345
126420,1755606994630,52.02,-61.24,-56.83,784,777,777,383,842,34.48275862068966,-0.775,-0.538,0.343
126450,1755606994659,51.9,-61.12,-56.89,784,779,780,354,836,33.333333333333336,-0.774,-0.536,0.342
126479,1755606994689,51.84,-61.04,-56.92,783,771,781,374,834,34.48275862068966,-0.771,-0.536,0.343
126509,1755606994718,52.03,-61.08,-56.93,780,779,783,401,844,33.333333333333336,-0.768,-0.537,0.342
126538,1755606994748,52.04,-61.08,-56.94,784,771,781,368,837,34.48275862068966,-0.771,-0.535,0.336
126568,1755606994777,51.95,-61.07,-56.99,780,773,780,346,838,33.333333333333336,-0.768,-0.543,0.339
126598,1755606994807,52.05,-61.04,-56.95,778,775,780,354,838,33.333333333333336,-0.765,-0.538,0.342
126627,1755606994837,52.09,-61.04,-57.02,785,779,779,403,837,34.48275862068966,-0.768,-0.539,0.342
126657,1755606994866,52.03,-60.93,-57.11,782,774,786,393,835,33.333333333333336,-0.767,-0.541,0.337
126686,1755606994896,51.98,-60.9,-57.06,783,775,780,368,831,34.48275862068966,-0.766,-0.549,0.34
126716,1755606994926,51.85,-60.85,-57.04,783,776,782,360,832,33.333333333333336,-0.768,-0.543,0.339
126746,1755606994955,51.7,-60.74,-57.19,782,777,781,388,840,33.333333333333336,-0.767,-0.546,0.341
126776,1755606994985,51.61,-60.61,-57.22,781,775,778,399,859,33.333333333333336,-0.765,-0.547,0.342
126805,1755606995014,51.42,-60.52,-57.27,783,778,785,388,833,34.48275862068966,-0.765,-0.544,0.341
126864,1755606995073,51.27,-60.43,-57.34,783,780,781,375,830,34.48275862068966,-0.766,-0.544,0.338
126894,1755606995103,51.28,-60.44,-57.27,781,780,783,401,829,33.333333333333336,-0.764,-0.546,0.339
126924,1755606995133,51.46,-60.5,-57.19,783,779,782,405,852,33.333333333333336,-0.762,-0.548,0.341
