timestamp_ms,recv_timestamp_ms,pitch,roll,yaw,flex1,flex2,flex3,flex4,flex5,sampling_hz,accel_x,accel_y,accel_z
135735,1755607004623,57.16,-69.3,-53.66,786,8,783,347,833,34.48275862068966,-0.848,-0.495,0.189
135765,1755607004626,57.17,-69.28,-53.66,777,0,781,347,834,33.333333333333336,-0.848,-0.497,0.19
135794,1755607004628,57.16,-69.27,-53.65,783,2,780,377,836,34.48275862068966,-0.848,-0.496,0.188
135824,1755607004630,57.18,-69.29,-53.67,780,5,780,409,838,33.333333333333336,-0.848,-0.495,0.187
135853,1755607004632,57.19,-69.26,-53.68,778,2,777,380,840,34.48275862068966,-0.848,-0.498,0.187
135883,1755607004634,57.19,-69.31,-53.67,779,0,783,338,831,33.333333333333336,-0.848,-0.498,0.185
135912,1755607004635,57.14,-69.33,-53.67,782,0,783,352,838,34.48275862068966,-0.848,-0.495,0.187
135942,1755607004637,57.15,-69.34,-53.68,780,0,778,405,836,33.333333333333336,-0.849,-0.495,0.188
135971,1755607004640,57.13,-69.35,-53.69,783,1,785,403,834,34.48275862068966,-0.848,-0.496,0.187
136001,1755607004642,57.13,-69.38,-53.69,777,3,779,357,835,33.333333333333336,-0.848,-0.499,0.187
136030,1755607004644,57.12,-69.36,-53.68,782,0,782,348,834,34.48275862068966,-0.848,-0.497,0.188
136050,1755607004646,57.12,-69.35,-53.69,777,0,780,368,834,50.0,-0.849,-0.494,0.189
136080,1755607004648,57.13,-69.33,-53.7,780,2,780,366,833,33.333333333333336,-0.849,-0.494,0.192
136109,1755607004651,57.15,-69.31,-53.7,783,4,779,398,836,34.48275862068966,-0.849,-0.497,0.192
136139,1755607004652,57.16,-69.29,-53.69,782,11,780,393,830,33.333333333333336,-0.849,-0.497,0.189
136159,1755607004655,57.18,-69.29,-53.7,780,0,781,391,835,50.0,-0.849,-0.495,0.187
136189,1755607004656,57.18,-69.32,-53.72,775,0,782,395,837,33.333333333333336,-0.849,-0.494,0.187
136219,1755607004658,57.19,-69.34,-53.73,781,2,781,362,838,33.333333333333336,-0.848,-0.498,0.188
136239,1755607004660,57.2,-69.33,-53.72,781,6,780,411,835,50.0,-0.848,-0.502,0.189
136268,1755607004662,57.21,-69.3,-53.7,783,0,780,367,832,34.48275862068966,-0.847,-0.501,0.188
136298,1755607004664,57.21,-69.32,-53.7,781,0,780,365,833,33.333333333333336,-0.848,-0.497,0.185
136328,1755607004666,57.19,-69.32,-53.7,780,2,783,394,836,33.333333333333336,-0.848,-0.499,0.184
136348,1755607004669,57.2,-69.33,-53.69,778,1,780,356,830,50.0,-0.848,-0.501,0.184
136378,1755607004671,57.16,-69.38,-53.67,780,4,780,400,834,33.333333333333336,-0.847,-0.501,0.186
136407,1755607004673,57.14,-69.38,-53.66,780,0,780,420,838,34.48275862068966,-0.848,-0.496,0.19
136437,1755607004675,57.17,-69.34,-53.67,782,2,781,392,829,33.333333333333336,-0.847,-0.496,0.189
136466,1755607004677,57.18,-69.3,-53.66,776,3,781,344,830,34.48275862068966,-0.844,-0.498,0.184
136496,1755607004705,57.17,-69.38,-53.66,776,1,777,363,835,33.333333333333336,-0.846,-0.497,0.184
136525,1755607004735,57.17,-69.47,-53.67,783,2,777,404,837,34.48275862068966,-0.847,-0.495,0.186
136555,1755607004765,57.19,-69.45,-53.67,779,1,784,402,832,33.333333333333336,-0.849,-0.494,0.185
136585,1755607004795,57.15,-69.48,-53.68,779,4,779,359,833,33.333333333333336,-0.847,-0.496,0.185
136615,1755607004824,57.16,-69.5,-53.67,777,0,775,345,835,33.333333333333336,-0.847,-0.496,0.188
136644,1755607004853,57.15,-69.48,-53.65,782,1,783,370,831,34.48275862068966,-0.848,-0.498,0.188
136674,1755607004884,57.11,-69.45,-53.61,779,3,777,387,837,33.333333333333336,-0.847,-0.499,0.188
136694,1755607004903,57.12,-69.45,-53.59,781,1,777,375,833,50.0,-0.847,-0.498,0.188
136723,1755607004932,57.1,-69.41,-53.57,780,6,781,391,836,34.48275862068966,-0.849,-0.494,0.186
136753,1755607004962,57.1,-69.4,-53.59,775,1,775,382,835,33.333333333333336,-0.848,-0.492,0.186
136782,1755607004992,57.13,-69.37,-53.61,776,1,781,362,838,34.48275862068966,-0.849,-0.494,0.187
136812,1755607005022,57.12,-69.36,-53.63,778,16,780,376,834,33.333333333333336,-0.849,-0.497,0.187
136842,1755607005051,57.08,-69.39,-53.61,778,2,779,405,835,33.333333333333336,-0.848,-0.496,0.189
136871,1755607005081,57.07,-69.41,-53.6,778,0,778,399,830,34.48275862068966,-0.849,-0.493,0.192
136901,1755607005111,57.05,-69.45,-53.6,781,1,781,358,836,33.333333333333336,-0.848,-0.495,0.195
136931,1755607005140,57.13,-69.31,-53.58,780,5,773,351,835,33.333333333333336,-0.848,-0.499,0.193
136960,1755607005170,57.19,-69.31,-53.57,787,0,781,352,836,34.48275862068966,-0.847,-0.498,0.186
136990,1755607005199,57.16,-69.38,-53.58,783,1,784,392,836,33.333333333333336,-0.85,-0.492,0.18
137019,1755607005229,57.13,-69.45,-53.6,780,0,777,376,837,34.48275862068966,-0.851,-0.493,0.183
137049,1755607005258,57.13,-69.43,-53.6,783,5,781,355,839,33.333333333333336,-0.848,-0.499,0.191
137078,1755607005288,57.17,-69.39,-53.57,781,0,780,382,836,34.48275862068966,-0.848,-0.497,0.192
137108,1755607005317,57.18,-69.37,-53.58,784,0,781,398,834,33.333333333333336,-0.851,-0.49,0.187
137167,1755607005376,57.2,-69.36,-53.61,780,1,782,359,835,33.333333333333336,-0.848,-0.503,0.186
137196,1755607005406,57.22,-69.36,-53.58,777,0,781,367,837,34.48275862068966,-0.849,-0.502,0.187
137226,1755607005435,57.21,-69.32,-53.57,783,0,781,409,830,33.333333333333336,-0.851,-0.489,0.186
137255,1755607005465,57.2,-69.31,-53.61,781,0,780,400,832,34.48275862068966,-0.853,-0.489,0.187
137285,1755607005494,57.19,-69.29,-53.6,779,0,782,367,839,33.333333333333336,-0.849,-0.497,0.188
137314,1755607005524,57.18,-69.32,-53.59,781,2,782,361,831,34.48275862068966,-0.848,-0.492,0.191
137373,1755607005583,57.22,-69.17,-53.64,779,3,776,415,830,34.48275862068966,-0.85,-0.488,0.186
137403,1755607005612,57.25,-69.16,-53.64,781,1,779,364,833,33.333333333333336,-0.848,-0.5,0.183
137433,1755607005642,57.22,-69.23,-53.59,782,9,776,355,836,33.333333333333336,-0.846,-0.501,0.184
137462,1755607005671,57.19,-69.33,-53.58,778,0,781,376,836,34.48275862068966,-0.848,-0.491,0.19
137492,1755607005701,57.22,-69.25,-53.59,777,3,781,414,828,33.333333333333336,-0.85,-0.489,0.197
137521,1755607005730,57.27,-69.15,-53.56,780,0,779,381,832,34.48275862068966,-0.847,-0.495,0.196
137550,1755607005760,57.31,-69.12,-53.51,782,2,781,353,831,34.48275862068966,-0.849,-0.498,0.191
137580,1755607005790,57.28,-69.19,-53.49,780,1,780,352,832,33.333333333333336,-0.85,-0.488,0.184
137610,1755607005819,57.24,-69.22,-53.51,780,3,781,406,838,33.333333333333336,-0.851,-0.487,0.184
137639,1755607005849,57.26,-69.26,-53.53,778,1,782,416,832,34.48275862068966,-0.849,-0.497,0.19
137699,1755607005909,57.22,-69.27,-53.48,780,2,780,356,833,33.333333333333336,-0.851,-0.488,0.188
137729,1755607005938,57.2,-69.26,-53.52,774,4,775,335,836,33.333333333333336,-0.851,-0.492,0.19
137758,1755607005968,57.21,-69.23,-53.53,779,7,779,376,832,34.48275862068966,-0.849,-0.5,0.192
137788,1755607005997,57.21,-69.18,-53.48,785,4,784,390,832,33.333333333333336,-0.849,-0.499,0.191
137817,1755607006027,57.18,-69.18,-53.47,778,1,779,355,830,34.48275862068966,-0.851,-0.49,0.188
137847,1755607006057,57.18,-69.2,-53.51,777,5,779,354,834,33.333333333333336,-0.852,-0.486,0.19
137867,1755607006077,57.19,-69.18,-53.52,783,4,783,365,832,50.0,-0.85,-0.493,0.197
137897,1755607006106,57.24,-69.11,-53.49,778,2,782,371,834,33.333333333333336,-0.848,-0.499,0.199
137926,1755607006136,57.2,-69.07,-53.45,782,0,780,411,834,34.48275862068966,-0.85,-0.491,0.192
137956,1755607006166,57.19,-69.05,-53.48,780,8,780,421,836,33.333333333333336,-0.853,-0.485,0.188
137986,1755607006195,57.25,-69.02,-53.52,776,4,785,376,834,33.333333333333336,-0.852,-0.493,0.19
138015,1755607006225,57.28,-69.03,-53.52,783,0,783,350,831,34.48275862068966,-0.85,-0.496,0.19
138045,1755607006254,57.23,-69.06,-53.51,776,2,785,334,831,33.333333333333336,-0.851,-0.491,0.19
138074,1755607006284,57.24,-69.01,-53.52,781,0,783,397,835,34.48275862068966,-0.853,-0.491,0.187
138104,1755607006314,57.28,-69.02,-53.54,779,18,781,391,830,33.333333333333336,-0.851,-0.495,0.184
138134,1755607006343,57.16,-69.11,-53.52,781,0,782,343,830,33.333333333333336,-0.85,-0.497,0.187
138164,1755607006373,57.15,-69.21,-53.5,780,2,782,355,836,33.333333333333336,-0.852,-0.492,0.195
138193,1755607006403,57.16,-69.18,-53.52,778,3,775,404,831,34.48275862068966,-0.851,-0.486,0.196
138223,1755607006432,57.16,-69.18,-53.54,784,11,778,395,836,33.333333333333336,-0.853,-0.489,0.194
138252,1755607006462,57.12,-69.15,-53.53,777,0,774,368,833,34.48275862068966,-0.852,-0.491,0.192
138282,1755607006491,57.15,-69.1,-53.5,779,0,782,338,835,33.333333333333336,-0.851,-0.491,0.194
138312,1755607006521,57.15,-69.11,-53.51,780,3,780,382,834,33.333333333333336,-0.85,-0.491,0.195
138341,1755607006551,57.09,-69.07,-53.45,779,3,783,415,838,34.48275862068966,-0.852,-0.49,0.198
138371,1755607006581,57.21,-69.07,-53.48,781,4,779,398,836,33.333333333333336,-0.85,-0.491,0.197
138401,1755607006610,57.23,-69.05,-53.49,779,0,776,349,831,33.333333333333336,-0.851,-0.489,0.2
138430,1755607006640,57.19,-68.85,-53.47,781,1,783,349,830,34.48275862068966,-0.851,-0.488,0.197
138460,1755607006669,57.22,-68.77,-53.42,779,0,777,384,828,33.333333333333336,-0.853,-0.489,0.194
138489,1755607006699,57.35,-68.74,-53.43,782,7,783,405,833,34.48275862068966,-0.848,-0.491,0.19
138519,1755607006729,57.39,-68.86,-53.44,781,0,783,370,844,33.333333333333336,-0.852,-0.493,0.187
138569,1755607006778,57.35,-69.04,-53.47,781,0,779,355,828,33.333333333333336,-0.852,-0.488,0.192
138598,1755607006808,57.38,-68.97,-53.5,776,1,776,330,835,34.48275862068966,-0.852,-0.491,0.191
138628,1755607006837,57.41,-69.02,-53.5,782,0,783,376,834,33.333333333333336,-0.851,-0.495,0.188
138657,1755607006867,57.38,-69.07,-53.5,787,4,776,386,836,34.48275862068966,-0.851,-0.494,0.185
138687,1755607006896,57.26,-69.13,-53.51,776,3,780,371,829,33.333333333333336,-0.851,-0.489,0.185
138716,1755607006926,57.18,-69.25,-53.56,780,7,781,350,833,34.48275862068966,-0.851,-0.488,0.19
138746,1755607006955,57.12,-69.15,-53.56,780,0,774,367,837,33.333333333333336,-0.854,-0.49,0.197
138775,1755607006985,57.11,-69.07,-53.56,781,0,776,406,835,34.48275862068966,-0.85,-0.491,0.197
138795,1755607007005,57.1,-69.0,-53.57,782,3,779,362,836,50.0,-0.85,-0.491,0.196
138825,1755607007035,57.12,-68.98,-53.58,782,2,782,412,839,33.333333333333336,-0.851,-0.491,0.193
138855,1755607007064,57.19,-68.94,-53.56,781,0,778,410,832,33.333333333333336,-0.852,-0.494,0.192
138885,1755607007094,57.27,-68.84,-53.47,781,1,776,367,838,33.333333333333336,-0.85,-0.495,0.197
138915,1755607007124,57.31,-68.78,-53.45,780,1,782,318,837,33.333333333333336,-0.849,-0.49,0.194
138944,1755607007154,57.32,-68.74,-53.0,782,1,783,375,828,34.48275862068966,-0.851,-0.49,0.191
138974,1755607007183,57.29,-68.82,-53.01,781,4,784,398,834,33.333333333333336,-0.849,-0.49,0.19
139003,1755607007213,57.32,-68.88,-53.07,779,5,782,369,833,34.48275862068966,-0.851,-0.49,0.195
139033,1755607007243,57.31,-68.87,-53.09,783,2,783,306,833,33.333333333333336,-0.851,-0.488,0.196
139063,1755607007273,57.3,-68.9,-53.14,776,0,775,333,836,33.333333333333336,-0.849,-0.487,0.196
139093,1755607007302,57.37,-68.93,-53.21,780,0,782,399,829,33.333333333333336,-0.851,-0.49,0.194
139122,1755607007332,57.41,-68.89,-53.25,782,4,780,395,837,34.48275862068966,-0.851,-0.492,0.19
139182,1755607007392,57.33,-69.01,-53.31,780,6,780,355,837,33.333333333333336,-0.85,-0.492,0.188
139212,1755607007421,57.35,-69.02,-53.36,780,6,781,370,834,33.333333333333336,-0.85,-0.494,0.193
139241,1755607007451,57.37,-68.94,-53.35,781,0,777,404,835,34.48275862068966,-0.849,-0.497,0.195
139271,1755607007480,57.35,-68.89,-53.35,779,12,781,392,834,33.333333333333336,-0.848,-0.496,0.193
139300,1755607007510,57.37,-68.87,-53.36,780,0,778,355,828,34.48275862068966,-0.848,-0.493,0.193
139330,1755607007539,57.35,-68.85,-53.37,780,0,775,360,834,33.333333333333336,-0.848,-0.494,0.192
139359,1755607007569,57.38,-68.84,-53.39,782,0,781,389,832,34.48275862068966,-0.848,-0.496,0.194
139389,1755607007599,57.37,-68.84,-53.39,777,0,781,403,829,33.333333333333336,-0.849,-0.495,0.193
139419,1755607007629,57.38,-68.83,-53.41,781,4,783,374,836,33.333333333333336,-0.848,-0.494,0.194
139449,1755607007658,57.42,-68.79,-53.43,783,0,776,365,826,33.333333333333336,-0.849,-0.495,0.193
139478,1755607007688,57.43,-68.83,-53.45,776,2,779,392,840,34.48275862068966,-0.848,-0.496,0.191
139508,1755607007717,57.42,-68.93,-53.46,777,3,784,430,837,33.333333333333336,-0.847,-0.498,0.193
139537,1755607007747,57.41,-68.86,-53.43,778,4,781,413,832,34.48275862068966,-0.849,-0.496,0.194
139567,1755607007776,57.38,-68.8,-53.42,780,0,781,378,833,33.333333333333336,-0.849,-0.493,0.192
139596,1755607007806,57.41,-68.84,-53.44,781,6,777,353,830,34.48275862068966,-0.848,-0.496,0.189
139626,1755607007836,57.36,-68.9,-53.43,778,1,776,382,836,33.333333333333336,-0.848,-0.498,0.188
139656,1755607007865,57.33,-68.97,-53.41,777,3,778,410,834,33.333333333333336,-0.848,-0.497,0.191
139686,1755607007895,57.28,-68.97,-53.4,777,0,784,369,835,33.333333333333336,-0.848,-0.493,0.194
139715,1755607007925,57.31,-68.94,-53.42,778,1,781,335,835,34.48275862068966,-0.848,-0.496,0.197
139745,1755607007954,57.35,-68.88,-53.41,780,5,783,374,831,33.333333333333336,-0.847,-0.497,0.196
139774,1755607007984,57.33,-68.89,-53.39,777,4,775,398,832,34.48275862068966,-0.848,-0.495,0.194
139804,1755607008013,57.3,-68.93,-53.39,778,13,777,382,830,33.333333333333336,-0.848,-0.494,0.193
139833,1755607008043,57.31,-68.93,-53.38,781,0,779,337,834,34.48275862068966,-0.848,-0.496,0.193
139863,1755607008073,57.35,-68.89,-53.39,782,1,779,346,830,33.333333333333336,-0.848,-0.497,0.192
139893,1755607008102,57.35,-68.92,-53.39,784,4,780,404,831,33.333333333333336,-0.848,-0.496,0.191
139922,1755607008131,57.37,-68.91,-53.38,784,0,781,405,830,34.48275862068966,-0.849,-0.495,0.194
139952,1755607008161,57.38,-68.89,-53.38,781,0,775,368,834,33.333333333333336,-0.848,-0.494,0.194
139981,1755607008191,57.39,-68.92,-53.38,778,3,777,307,833,34.48275862068966,-0.848,-0.494,0.192
140011,1755607008220,57.39,-68.96,-53.38,779,3,780,355,839,33.333333333333336,-0.849,-0.494,0.191
140040,1755607008250,57.38,-68.95,-53.37,777,0,780,398,833,34.48275862068966,-0.849,-0.494,0.19
140070,1755607008280,57.35,-68.98,-53.37,777,0,778,375,836,33.333333333333336,-0.848,-0.494,0.189
140100,1755607008310,57.37,-68.98,-53.37,781,0,781,343,832,33.333333333333336,-0.848,-0.497,0.19
140130,1755607008339,57.36,-68.96,-53.36,780,4,781,357,836,33.333333333333336,-0.848,-0.493,0.19
140160,1755607008369,57.36,-68.94,-53.36,775,14,776,400,834,33.333333333333336,-0.85,-0.491,0.191
140189,1755607008399,57.37,-68.92,-53.37,777,1,780,395,835,34.48275862068966,-0.848,-0.493,0.19
140219,1755607008429,57.38,-68.96,-53.38,781,1,777,361,827,33.333333333333336,-0.849,-0.493,0.188
140279,1755607008488,57.33,-68.94,-53.38,776,0,783,371,837,33.333333333333336,-0.849,-0.494,0.191
140308,1755607008517,57.36,-68.92,-53.39,780,3,778,398,836,34.48275862068966,-0.849,-0.496,0.188
140338,1755607008547,57.36,-68.98,-53.4,779,0,777,402,828,33.333333333333336,-0.849,-0.495,0.184
140368,1755607008577,57.32,-69.01,-53.4,786,0,781,357,834,33.333333333333336,-0.85,-0.493,0.185
140397,1755607008606,57.31,-69.03,-53.41,781,0,778,367,834,34.48275862068966,-0.849,-0.496,0.19
140427,1755607008636,57.3,-69.03,-53.41,781,0,775,387,830,33.333333333333336,-0.848,-0.495,0.19
140456,1755607008665,57.3,-69.03,-53.41,779,0,786,398,832,34.48275862068966,-0.85,-0.494,0.195
140486,1755607008695,57.29,-69.05,-53.41,781,1,779,376,831,33.333333333333336,-0.849,-0.494,0.197
140515,1755607008724,57.3,-69.05,-53.41,776,0,779,337,840,34.48275862068966,-0.85,-0.494,0.196
140544,1755607008754,57.31,-69.01,-53.41,784,4,779,375,834,34.48275862068966,-0.849,-0.493,0.193
140574,1755607008783,57.28,-69.03,-53.41,781,7,779,397,831,33.333333333333336,-0.85,-0.492,0.191
140604,1755607008813,57.27,-69.03,-53.42,780,0,784,390,832,33.333333333333336,-0.849,-0.494,0.193
140633,1755607008843,57.31,-68.96,-53.41,780,0,781,350,833,34.48275862068966,-0.849,-0.496,0.195
140663,1755607008873,57.32,-68.93,-53.42,781,0,784,355,827,33.333333333333336,-0.849,-0.493,0.193
140693,1755607008903,57.32,-68.91,-53.42,776,0,778,403,832,33.333333333333336,-0.849,-0.492,0.192
140713,1755607008923,57.33,-68.89,-53.44,781,0,780,356,827,50.0,-0.85,-0.494,0.19
140733,1755607008943,57.36,-68.88,-53.45,780,6,782,367,834,50.0,-0.85,-0.496,0.186
140763,1755607008972,57.33,-68.92,-53.44,782,2,779,366,854,33.333333333333336,-0.849,-0.497,0.185
140792,1755607009002,57.32,-68.95,-53.45,780,5,777,389,830,34.48275862068966,-0.85,-0.495,0.188
140822,1755607009031,57.32,-68.9,-53.45,776,0,785,399,835,33.333333333333336,-0.849,-0.496,0.192
140851,1755607009061,57.35,-68.86,-53.46,780,14,784,357,830,34.48275862068966,-0.85,-0.494,0.19
140881,1755607009091,57.3,-68.86,-53.44,779,1,785,302,837,33.333333333333336,-0.848,-0.495,0.191
140911,1755607009120,57.3,-68.94,-53.43,779,2,780,373,832,33.333333333333336,-0.849,-0.497,0.196
140940,1755607009150,57.29,-68.86,-53.39,781,0,775,389,837,34.48275862068966,-0.848,-0.496,0.196
140970,1755607009179,57.28,-68.84,-53.37,782,10,779,373,838,33.333333333333336,-0.849,-0.494,0.192
140999,1755607009209,57.27,-68.8,-53.35,781,0,782,337,829,34.48275862068966,-0.85,-0.494,0.188
141029,1755607009238,57.27,-68.87,-53.35,783,1,781,345,839,33.333333333333336,-0.849,-0.495,0.189
141058,1755607009268,57.24,-68.82,-53.33,781,0,780,408,829,34.48275862068966,-0.849,-0.495,0.191
141088,1755607009297,57.2,-68.82,-53.3,780,3,780,413,831,33.333333333333336,-0.848,-0.493,0.191
141117,1755607009327,57.16,-68.86,-53.3,777,0,778,320,833,34.48275862068966,-0.849,-0.493,0.19
141147,1755607009357,57.14,-68.9,-53.29,777,0,783,326,836,33.333333333333336,-0.849,-0.493,0.192
141177,1755607009387,57.18,-68.91,-53.28,779,0,778,391,836,33.333333333333336,-0.849,-0.493,0.196
141197,1755607009406,57.22,-68.87,-53.28,776,0,779,347,834,50.0,-0.85,-0.49,0.196
141226,1755607009436,57.27,-68.84,-53.32,775,0,781,387,835,34.48275862068966,-0.85,-0.489,0.193
141256,1755607009466,57.3,-68.79,-53.35,781,0,778,402,831,33.333333333333336,-0.85,-0.49,0.191
141286,1755607009495,57.29,-68.78,-53.35,782,2,778,369,834,33.333333333333336,-0.849,-0.49,0.191
141315,1755607009525,57.27,-68.76,-52.9,778,0,776,357,831,34.48275862068966,-0.85,-0.49,0.192
141345,1755607009554,57.21,-68.75,-52.9,777,3,780,387,834,33.333333333333336,-0.849,-0.489,0.191
141374,1755607009584,57.22,-68.74,-52.92,782,0,776,420,832,34.48275862068966,-0.851,-0.491,0.193
141404,1755607009614,57.15,-68.67,-52.9,782,0,781,396,833,33.333333333333336,-0.849,-0.494,0.192
141434,1755607009643,57.13,-68.67,-52.87,776,0,780,351,838,33.333333333333336,-0.848,-0.497,0.193
141463,1755607009673,57.04,-68.68,-52.8,777,0,783,311,833,34.48275862068966,-0.848,-0.492,0.196
141493,1755607009702,56.99,-68.71,-52.77,781,4,778,386,838,33.333333333333336,-0.849,-0.489,0.204
141522,1755607009732,57.04,-68.58,-52.74,781,3,779,403,834,34.48275862068966,-0.849,-0.487,0.207
141552,1755607009761,57.09,-68.51,-52.75,778,3,781,367,826,33.333333333333336,-0.849,-0.488,0.204
141581,1755607009791,57.14,-68.5,-52.76,782,0,777,340,830,34.48275862068966,-0.85,-0.487,0.198
141611,1755607009820,57.11,-68.5,-52.76,779,0,783,360,834,33.333333333333336,-0.852,-0.484,0.195
141641,1755607009850,57.08,-68.52,-52.77,779,0,781,388,827,33.333333333333336,-0.851,-0.487,0.198
141670,1755607009880,57.08,-68.52,-52.77,779,0,782,386,829,34.48275862068966,-0.849,-0.488,0.201
141700,1755607009910,57.08,-68.56,-52.78,781,2,783,355,835,33.333333333333336,-0.85,-0.488,0.203
141720,1755607009929,57.09,-68.54,-52.77,781,11,781,403,831,50.0,-0.851,-0.485,0.205
141750,1755607009959,57.08,-68.46,-52.77,780,2,776,355,830,33.333333333333336,-0.851,-0.486,0.206
141779,1755607009989,57.12,-68.43,-52.78,782,0,783,355,827,34.48275862068966,-0.851,-0.488,0.201
141809,1755607010018,57.08,-68.48,-52.78,776,1,775,361,831,33.333333333333336,-0.851,-0.487,0.198
141838,1755607010048,57.1,-68.48,-52.79,780,1,783,371,834,34.48275862068966,-0.851,-0.488,0.2
141868,1755607010077,57.07,-68.44,-52.77,779,1,775,351,833,33.333333333333336,-0.85,-0.487,0.2
141897,1755607010107,57.05,-68.5,-52.79,780,3,780,351,826,34.48275862068966,-0.851,-0.487,0.201
141927,1755607010136,57.05,-68.47,-52.79,783,0,784,384,835,33.333333333333336,-0.851,-0.487,0.201
141956,1755607010166,57.07,-68.48,-52.8,778,9,778,400,834,34.48275862068966,-0.849,-0.489,0.2
141986,1755607010195,57.14,-68.45,-52.83,779,1,775,368,835,33.333333333333336,-0.851,-0.491,0.196
142015,1755607010225,57.08,-68.46,-52.81,776,3,783,350,836,34.48275862068966,-0.85,-0.491,0.192
142045,1755607010254,57.03,-68.6,-52.81,777,3,782,353,850,33.333333333333336,-0.848,-0.49,0.199
142074,1755607010284,57.08,-68.57,-52.82,780,2,782,404,832,34.48275862068966,-0.85,-0.486,0.206
142104,1755607010313,57.06,-68.47,-52.82,776,0,781,394,827,33.333333333333336,-0.85,-0.485,0.205
142133,1755607010343,57.08,-68.46,-52.82,780,2,781,352,829,34.48275862068966,-0.848,-0.489,0.204
142163,1755607010372,57.12,-68.46,-52.82,781,6,777,345,830,33.333333333333336,-0.849,-0.487,0.201
142193,1755607010402,57.12,-68.46,-52.83,780,1,780,388,833,33.333333333333336,-0.85,-0.488,0.199
142222,1755607010432,57.16,-68.46,-52.85,778,0,777,407,837,34.48275862068966,-0.85,-0.487,0.201
142252,1755607010461,57.15,-68.46,-52.87,781,0,781,362,834,33.333333333333336,-0.85,-0.488,0.2
142281,1755607010491,57.17,-68.48,-52.87,781,12,780,313,824,34.48275862068966,-0.849,-0.49,0.201
142311,1755607010520,57.17,-68.44,-52.87,778,0,779,327,831,33.333333333333336,-0.849,-0.488,0.201
142340,1755607010549,57.19,-68.48,-52.89,778,2,780,379,833,34.48275862068966,-0.85,-0.487,0.199
142369,1755607010579,57.19,-68.45,-52.9,779,6,776,346,832,34.48275862068966,-0.849,-0.491,0.199
142399,1755607010609,57.23,-68.46,-52.9,780,13,776,330,837,33.333333333333336,-0.848,-0.493,0.197
142429,1755607010639,57.22,-68.45,-52.89,780,6,781,346,832,33.333333333333336,-0.849,-0.491,0.197
142459,1755607010668,57.27,-68.47,-52.9,781,0,778,405,836,33.333333333333336,-0.85,-0.489,0.199
142488,1755607010698,57.27,-68.43,-52.9,779,0,780,409,844,34.48275862068966,-0.849,-0.489,0.2
142518,1755607010728,57.3,-68.46,-52.91,780,0,778,352,837,33.333333333333336,-0.85,-0.491,0.2
142539,1755607010748,57.31,-68.43,-52.9,777,5,780,392,835,47.61904761904762,-0.85,-0.491,0.198
142568,1755607010777,57.33,-68.43,-52.9,779,0,783,339,830,34.48275862068966,-0.85,-0.49,0.196
142597,1755607010807,57.32,-68.43,-52.91,781,0,780,304,836,34.48275862068966,-0.85,-0.49,0.197
142627,1755607010837,57.34,-68.42,-52.91,782,2,777,371,833,33.333333333333336,-0.849,-0.489,0.198
142657,1755607010866,57.36,-68.42,-52.92,774,5,776,408,837,33.333333333333336,-0.849,-0.49,0.195
142686,1755607010896,57.37,-68.46,-52.92,782,0,781,382,824,34.48275862068966,-0.85,-0.491,0.194
142716,1755607010925,57.37,-68.47,-52.92,780,1,781,336,831,33.333333333333336,-0.85,-0.49,0.195
142745,1755607010955,57.36,-68.47,-52.93,781,6,780,323,833,34.48275862068966,-0.85,-0.489,0.196
142775,1755607010985,57.35,-68.47,-52.94,774,0,779,386,833,33.333333333333336,-0.849,-0.491,0.196
142795,1755607011005,57.36,-68.49,-52.94,784,3,774,349,830,50.0,-0.849,-0.492,0.197
142825,1755607011034,57.39,-68.5,-52.94,777,0,776,395,834,33.333333333333336,-0.849,-0.492,0.196
142854,1755607011064,57.34,-68.51,-52.94,782,2,781,380,830,34.48275862068966,-0.85,-0.488,0.192
142884,1755607011093,57.34,-68.54,-52.96,782,6,778,361,836,33.333333333333336,-0.85,-0.491,0.191
142914,1755607011123,57.34,-68.57,-52.97,777,5,783,360,831,33.333333333333336,-0.849,-0.493,0.192
142943,1755607011152,57.31,-68.6,-52.96,782,0,782,406,833,34.48275862068966,-0.849,-0.492,0.197
142973,1755607011182,57.35,-68.55,-52.95,775,0,777,409,828,33.333333333333336,-0.849,-0.49,0.199
143002,1755607011211,57.37,-68.49,-52.95,778,0,778,364,834,34.48275862068966,-0.849,-0.49,0.194
143031,1755607011241,57.37,-68.54,-52.96,784,0,779,343,833,34.48275862068966,-0.85,-0.491,0.19
143061,1755607011270,57.33,-68.55,-52.94,776,0,784,375,831,33.333333333333336,-0.849,-0.491,0.191
143090,1755607011300,57.35,-68.57,-52.95,781,0,780,387,833,34.48275862068966,-0.849,-0.49,0.195
143120,1755607011330,57.37,-68.52,-52.95,777,4,782,384,839,33.333333333333336,-0.849,-0.488,0.196
143150,1755607011359,57.37,-68.52,-52.96,776,0,778,338,831,33.333333333333336,-0.849,-0.49,0.195
143180,1755607011389,57.39,-68.49,-52.94,779,1,784,356,834,33.333333333333336,-0.849,-0.491,0.193
143209,1755607011419,57.37,-68.53,-52.94,783,3,779,403,836,34.48275862068966,-0.85,-0.49,0.191
143239,1755607011448,57.34,-68.59,-52.94,779,0,780,401,834,33.333333333333336,-0.849,-0.488,0.195
143268,1755607011478,57.37,-68.46,-52.93,782,0,783,361,828,34.48275862068966,-0.851,-0.493,0.195
143298,1755607011507,57.44,-68.37,-52.92,782,2,780,355,834,33.333333333333336,-0.848,-0.498,0.186
143328,1755607011537,57.44,-68.35,-52.91,777,0,782,395,829,33.333333333333336,-0.849,-0.497,0.178
143357,1755607011567,57.34,-68.46,-52.9,780,0,780,417,835,34.48275862068966,-0.851,-0.489,0.184
143387,1755607011597,57.22,-68.52,-52.9,778,0,774,370,835,33.333333333333336,-0.85,-0.485,0.203
143417,1755607011626,57.29,-68.33,-52.9,781,1,780,341,845,33.333333333333336,-0.849,-0.488,0.213
143446,1755607011656,57.37,-68.17,-52.9,778,4,777,361,831,34.48275862068966,-0.848,-0.489,0.206
143476,1755607011686,57.43,-68.19,-52.92,780,0,777,352,828,33.333333333333336,-0.849,-0.489,0.194
143506,1755607011716,57.38,-68.29,-52.92,775,2,781,381,834,33.333333333333336,-0.85,-0.489,0.189
143536,1755607011745,57.35,-68.36,-52.93,777,4,784,367,831,33.333333333333336,-0.849,-0.49,0.192
143566,1755607011775,57.3,-68.41,-52.92,777,0,775,353,835,33.333333333333336,-0.85,-0.488,0.192
143595,1755607011804,57.21,-68.51,-52.94,776,0,783,359,827,34.48275862068966,-0.85,-0.486,0.196
143625,1755607011834,57.24,-68.51,-52.96,785,1,775,394,831,33.333333333333336,-0.849,-0.489,0.206
143654,1755607011864,57.29,-68.37,-52.96,781,0,781,394,828,34.48275862068966,-0.847,-0.492,0.205
143684,1755607011893,57.33,-68.35,-52.97,777,2,776,368,835,33.333333333333336,-0.848,-0.491,0.198
143714,1755607011923,57.3,-68.37,-52.97,777,6,784,359,836,33.333333333333336,-0.849,-0.489,0.201
143743,1755607011952,57.35,-68.34,-52.99,777,1,780,410,834,34.48275862068966,-0.85,-0.491,0.201
143772,1755607011982,57.33,-68.3,-52.99,783,0,782,395,831,34.48275862068966,-0.848,-0.491,0.198
143802,1755607012012,57.32,-68.3,-52.99,778,0,780,375,836,33.333333333333336,-0.85,-0.491,0.197
143832,1755607012041,57.32,-68.34,-52.99,780,0,777,315,832,33.333333333333336,-0.849,-0.49,0.197
143861,1755607012071,57.27,-68.36,-52.98,782,0,779,362,830,34.48275862068966,-0.848,-0.492,0.202
143891,1755607012100,57.29,-68.32,-52.97,781,4,782,403,834,33.333333333333336,-0.848,-0.491,0.205
143920,1755607012130,57.3,-68.25,-52.94,785,18,783,373,835,34.48275862068966,-0.848,-0.491,0.203
143950,1755607012160,57.3,-68.27,-52.93,780,5,781,351,834,33.333333333333336,-0.849,-0.49,0.2
143980,1755607012189,57.31,-68.31,-52.93,779,1,773,352,835,33.333333333333336,-0.849,-0.489,0.199
144009,1755607012219,57.32,-68.3,-52.94,783,1,781,389,827,34.48275862068966,-0.85,-0.487,0.198
144039,1755607012249,57.32,-68.22,-52.93,782,0,779,399,832,33.333333333333336,-0.85,-0.489,0.198
144069,1755607012278,57.34,-68.25,-52.95,780,0,782,365,833,33.333333333333336,-0.849,-0.491,0.198
144098,1755607012308,57.37,-68.24,-52.95,776,5,781,342,838,34.48275862068966,-0.85,-0.487,0.197
144128,1755607012337,57.38,-68.26,-52.98,781,1,784,363,832,33.333333333333336,-0.851,-0.486,0.194
144157,1755607012368,57.34,-68.28,-52.99,780,0,782,409,835,34.48275862068966,-0.85,-0.492,0.196
144178,1755607012387,57.36,-68.28,-52.98,781,3,781,373,829,47.61904761904762,-0.849,-0.495,0.196
144207,1755607012417,57.35,-68.37,-52.98,776,0,780,415,833,34.48275862068966,-0.85,-0.49,0.194
144237,1755607012446,57.35,-68.41,-53.0,781,0,779,400,835,33.333333333333336,-0.851,-0.489,0.197
144266,1755607012476,57.35,-68.35,-53.0,780,0,785,359,834,34.48275862068966,-0.851,-0.491,0.196
144296,1755607012505,57.36,-68.39,-53.0,780,0,781,325,833,33.333333333333336,-0.849,-0.494,0.196
144325,1755607012535,57.38,-68.42,-53.0,781,3,780,379,830,34.48275862068966,-0.851,-0.489,0.199
144355,1755607012564,57.39,-68.31,-53.0,774,0,777,374,830,33.333333333333336,-0.852,-0.486,0.2
144384,1755607012594,57.42,-68.28,-53.01,781,4,783,357,832,34.48275862068966,-0.85,-0.49,0.198
144414,1755607012624,57.44,-68.3,-53.02,780,0,783,362,828,33.333333333333336,-0.848,-0.494,0.194
144444,1755607012653,57.47,-68.33,-53.02,781,0,780,382,833,33.333333333333336,-0.85,-0.493,0.19
