timestamp_ms,recv_timestamp_ms,pitch,roll,yaw,flex1,flex2,flex3,flex4,flex5,sampling_hz,accel_x,accel_y,accel_z
93292,1755598395286,68.09,-61.63,-4.19,769,759,843,901,860,33.333333333333336,-0.928,-0.327,0.178
93321,1755598395288,68.12,-61.63,-4.22,771,768,833,893,862,34.48275862068966,-0.928,-0.326,0.178
93351,1755598395291,68.1,-61.6,-4.24,770,771,841,895,862,33.333333333333336,-0.929,-0.327,0.176
93380,1755598395293,68.12,-61.63,-4.25,765,771,839,894,857,34.48275862068966,-0.931,-0.329,0.174
93410,1755598395295,68.09,-61.65,-4.26,769,772,842,904,859,33.333333333333336,-0.929,-0.33,0.174
93439,1755598395297,68.08,-61.67,-4.28,768,771,847,896,860,34.48275862068966,-0.93,-0.331,0.176
93469,1755598395299,68.08,-61.68,-4.26,775,768,846,899,854,33.333333333333336,-0.932,-0.331,0.176
93498,1755598395301,68.1,-61.67,-4.24,766,766,840,891,857,34.48275862068966,-0.931,-0.331,0.176
93528,1755598395303,68.1,-61.69,-4.25,773,761,839,896,863,33.333333333333336,-0.929,-0.33,0.177
93558,1755598395305,68.08,-61.68,-4.25,767,766,848,899,869,33.333333333333336,-0.931,-0.33,0.176
93587,1755598395307,68.09,-61.68,-4.24,767,766,841,897,866,34.48275862068966,-0.933,-0.332,0.176
93617,1755598395310,68.12,-61.68,-4.21,770,768,844,894,861,33.333333333333336,-0.931,-0.331,0.177
93646,1755598395312,68.12,-61.68,-4.22,765,762,855,895,869,34.48275862068966,-0.932,-0.328,0.178
93676,1755598395314,68.14,-61.69,-4.27,769,771,843,901,863,33.333333333333336,-0.933,-0.328,0.178
93706,1755598395315,68.14,-61.68,-4.29,767,766,842,900,862,33.333333333333336,-0.936,-0.329,0.177
93735,1755598395317,68.16,-61.68,-4.3,771,770,837,899,867,34.48275862068966,-0.934,-0.33,0.175
93765,1755598395319,68.12,-61.71,-4.32,769,768,830,902,862,33.333333333333336,-0.932,-0.33,0.174
93794,1755598395321,68.06,-61.74,-4.34,770,769,839,898,863,34.48275862068966,-0.932,-0.331,0.173
93824,1755598395323,68.09,-61.78,-4.34,763,772,838,898,870,33.333333333333336,-0.934,-0.333,0.175
93854,1755598395325,68.07,-61.79,-4.32,764,767,838,897,869,33.333333333333336,-0.933,-0.334,0.176
93883,1755598395327,68.07,-61.81,-4.32,770,764,838,901,859,34.48275862068966,-0.931,-0.333,0.176
93913,1755598395329,68.05,-61.84,-4.32,772,770,842,903,857,33.333333333333336,-0.931,-0.334,0.176
93942,1755598395331,68.04,-61.83,-4.31,770,772,829,900,852,34.48275862068966,-0.931,-0.333,0.176
93972,1755598395334,68.05,-61.81,-4.3,770,768,844,898,855,33.333333333333336,-0.93,-0.333,0.177
94001,1755598395335,68.02,-61.78,-4.29,770,771,844,910,861,34.48275862068966,-0.929,-0.333,0.177
94060,1755598395339,68.03,-61.78,-4.31,767,767,852,907,867,34.48275862068966,-0.931,-0.331,0.178
94090,1755598395341,68.01,-61.77,-4.31,763,770,830,894,862,33.333333333333336,-0.929,-0.331,0.179
94119,1755598395343,68.05,-61.76,-4.31,771,770,843,899,859,34.48275862068966,-0.928,-0.332,0.178
94179,1755598395348,68.04,-61.75,-4.3,770,768,834,903,860,33.333333333333336,-0.929,-0.333,0.172
94208,1755598395350,68.08,-61.8,-4.3,766,773,845,903,863,34.48275862068966,-0.93,-0.333,0.175
94238,1755598395352,68.05,-61.81,-4.31,770,775,845,903,854,33.333333333333336,-0.93,-0.332,0.176
94267,1755598395353,68.08,-61.77,-4.31,769,770,838,896,860,34.48275862068966,-0.928,-0.331,0.178
94297,1755598395355,68.11,-61.75,-4.31,769,766,841,901,860,33.333333333333336,-0.929,-0.332,0.178
94356,1755598395359,68.13,-61.79,-4.33,769,765,837,895,876,34.48275862068966,-0.929,-0.331,0.175
94386,1755598395361,68.09,-61.78,-4.34,770,770,837,900,851,33.333333333333336,-0.928,-0.331,0.176
94415,1755598395363,68.11,-61.78,-4.35,772,773,840,897,866,34.48275862068966,-0.93,-0.333,0.176
94445,1755598395365,68.11,-61.77,-4.34,770,771,844,892,862,33.333333333333336,-0.93,-0.333,0.176
94474,1755598395367,68.13,-61.79,-4.34,767,770,843,904,864,34.48275862068966,-0.929,-0.333,0.175
94534,1755598395371,68.08,-61.82,-4.36,772,768,834,895,863,33.333333333333336,-0.93,-0.331,0.174
94563,1755598395373,68.08,-61.87,-3.91,765,767,836,906,861,34.48275862068966,-0.931,-0.333,0.176
94593,1755598395375,68.1,-61.89,-3.92,761,769,851,898,862,33.333333333333336,-0.928,-0.334,0.176
94622,1755598395377,68.12,-61.91,-3.91,764,768,849,902,861,34.48275862068966,-0.929,-0.336,0.175
94652,1755598395379,68.13,-61.94,-3.89,771,774,850,905,857,33.333333333333336,-0.931,-0.336,0.175
94681,1755598395381,68.19,-61.99,-3.86,767,771,839,905,859,34.48275862068966,-0.931,-0.335,0.173
94711,1755598395383,68.23,-62.01,-3.84,771,762,847,898,857,33.333333333333336,-0.929,-0.333,0.173
94740,1755598395385,68.2,-62.01,-3.86,768,767,847,895,861,34.48275862068966,-0.928,-0.331,0.173
94770,1755598395387,68.19,-62.01,-3.88,766,770,840,902,858,33.333333333333336,-0.929,-0.332,0.172
94799,1755598395390,68.19,-62.01,-3.87,765,775,843,902,860,34.48275862068966,-0.933,-0.335,0.173
94829,1755598395391,68.22,-62.02,-3.87,763,763,844,897,853,33.333333333333336,-0.932,-0.334,0.175
94858,1755598395393,68.2,-61.98,-3.87,767,774,842,901,865,34.48275862068966,-0.93,-0.332,0.175
94888,1755598395395,68.19,-61.95,-3.86,769,772,843,899,862,33.333333333333336,-0.934,-0.333,0.173
94917,1755598395397,68.21,-61.99,-3.84,769,764,851,895,867,34.48275862068966,-0.934,-0.333,0.168
94947,1755598395399,68.19,-62.06,-3.85,763,768,854,901,856,33.333333333333336,-0.93,-0.332,0.167
94976,1755598395422,68.15,-62.13,-3.87,771,766,841,891,860,34.48275862068966,-0.93,-0.331,0.169
95006,1755598395452,68.12,-62.18,-3.88,772,773,846,897,863,33.333333333333336,-0.931,-0.331,0.172
95036,1755598395482,68.14,-62.21,-3.87,767,768,838,906,876,33.333333333333336,-0.93,-0.332,0.174
95065,1755598395512,68.16,-62.2,-3.86,769,773,844,903,860,34.48275862068966,-0.93,-0.332,0.175
95095,1755598395541,68.11,-62.18,-3.86,769,768,844,894,854,33.333333333333336,-0.93,-0.333,0.173
95124,1755598395571,68.13,-62.19,-3.84,772,770,844,893,865,34.48275862068966,-0.931,-0.333,0.171
95154,1755598395600,68.14,-62.2,-3.81,770,764,832,898,860,33.333333333333336,-0.933,-0.333,0.171
95184,1755598395631,68.15,-62.22,-3.79,768,767,838,896,856,33.333333333333336,-0.93,-0.332,0.172
95204,1755598395650,68.16,-62.22,-3.79,770,768,854,901,866,50.0,-0.928,-0.33,0.173
95234,1755598395680,68.14,-62.21,-3.8,763,769,844,901,855,33.333333333333336,-0.928,-0.329,0.173
95263,1755598395709,68.16,-62.22,-3.8,767,765,837,894,857,34.48275862068966,-0.93,-0.33,0.172
95293,1755598395739,68.18,-62.23,-3.8,764,762,841,899,861,33.333333333333336,-0.93,-0.33,0.172
95322,1755598395768,68.17,-62.21,-3.8,770,767,843,898,861,34.48275862068966,-0.928,-0.329,0.173
95352,1755598395798,68.2,-62.21,-3.82,769,769,837,898,860,33.333333333333336,-0.929,-0.329,0.174
95381,1755598395827,68.2,-62.22,-3.84,769,761,842,898,864,34.48275862068966,-0.929,-0.329,0.173
95411,1755598395857,68.23,-62.21,-3.86,766,767,842,899,867,33.333333333333336,-0.929,-0.33,0.173
95471,1755598395917,68.24,-62.21,-3.86,764,772,837,902,857,33.333333333333336,-0.931,-0.334,0.17
95500,1755598395946,68.2,-62.23,-3.84,769,768,842,898,870,34.48275862068966,-0.932,-0.333,0.169
95530,1755598395976,68.23,-62.26,-3.84,774,768,835,892,858,33.333333333333336,-0.93,-0.331,0.17
95589,1755598396035,68.2,-62.28,-3.87,769,766,838,898,861,33.333333333333336,-0.93,-0.332,0.172
95609,1755598396055,68.21,-62.3,-3.87,766,771,843,903,871,50.0,-0.932,-0.333,0.172
95638,1755598396085,68.21,-62.29,-3.86,772,771,832,894,855,34.48275862068966,-0.932,-0.332,0.172
95668,1755598396114,68.21,-62.29,-3.86,769,774,842,904,857,33.333333333333336,-0.93,-0.331,0.171
95698,1755598396144,68.19,-62.32,-3.88,766,759,836,903,850,33.333333333333336,-0.93,-0.332,0.171
95727,1755598396174,68.17,-62.33,-3.88,773,769,840,903,861,34.48275862068966,-0.931,-0.332,0.171
95787,1755598396233,68.18,-62.33,-3.87,766,766,828,904,861,33.333333333333336,-0.93,-0.332,0.172
95807,1755598396253,68.17,-62.33,-3.87,770,770,842,904,863,50.0,-0.93,-0.332,0.172
95866,1755598396312,68.16,-62.34,-3.87,769,764,839,901,856,33.333333333333336,-0.93,-0.331,0.171
95925,1755598396371,68.14,-62.35,-3.87,764,771,845,899,863,33.333333333333336,-0.931,-0.332,0.172
95955,1755598396401,68.13,-62.36,-3.87,772,774,836,899,866,33.333333333333336,-0.93,-0.332,0.173
95984,1755598396430,68.11,-62.36,-3.86,766,770,842,900,860,34.48275862068966,-0.931,-0.334,0.172
96043,1755598396489,68.13,-62.36,-3.83,769,768,844,899,866,34.48275862068966,-0.929,-0.331,0.173
96073,1755598396519,68.14,-62.36,-3.85,769,766,847,908,864,33.333333333333336,-0.929,-0.331,0.174
96102,1755598396549,68.12,-62.35,-3.86,769,768,840,894,858,34.48275862068966,-0.93,-0.331,0.172
96132,1755598396579,68.14,-62.37,-3.85,768,767,834,896,871,33.333333333333336,-0.931,-0.331,0.171
96162,1755598396608,68.13,-62.38,-3.85,769,773,847,901,875,33.333333333333336,-0.928,-0.331,0.172
96192,1755598396638,68.11,-62.39,-3.87,767,771,853,898,855,33.333333333333336,-0.929,-0.331,0.173
96251,1755598396697,68.14,-62.37,-3.85,771,767,837,897,860,33.333333333333336,-0.93,-0.332,0.173
96280,1755598396726,68.09,-62.34,-3.86,769,772,842,899,863,34.48275862068966,-0.928,-0.331,0.173
96310,1755598396756,68.05,-62.34,-3.87,770,768,839,901,865,33.333333333333336,-0.931,-0.332,0.171
96339,1755598396785,68.09,-62.37,-3.84,765,761,847,901,865,34.48275862068966,-0.935,-0.334,0.172
96369,1755598396815,68.09,-62.38,-3.8,767,777,841,897,865,33.333333333333336,-0.932,-0.334,0.173
96399,1755598396845,68.1,-62.38,-3.78,771,773,841,893,861,33.333333333333336,-0.929,-0.332,0.173
96428,1755598396874,68.08,-62.4,-3.78,771,761,839,906,865,34.48275862068966,-0.93,-0.329,0.173
96458,1755598396904,68.1,-62.41,-3.79,768,768,850,901,857,33.333333333333336,-0.931,-0.328,0.174
96487,1755598396934,68.11,-62.4,-3.8,766,766,841,896,867,34.48275862068966,-0.93,-0.329,0.174
96508,1755598396954,68.1,-62.39,-3.81,765,769,847,900,860,47.61904761904762,-0.928,-0.331,0.173
96537,1755598396983,68.1,-62.39,-3.81,771,768,834,903,860,34.48275862068966,-0.929,-0.332,0.173
96567,1755598397013,68.1,-62.39,-3.81,769,769,843,903,856,33.333333333333336,-0.931,-0.331,0.174
96596,1755598397043,68.14,-62.38,-3.8,764,769,850,899,867,34.48275862068966,-0.929,-0.331,0.174
96626,1755598397072,68.13,-62.39,-3.81,769,768,835,897,852,33.333333333333336,-0.929,-0.33,0.174
96656,1755598397102,68.13,-62.38,-3.83,766,762,838,902,863,33.333333333333336,-0.929,-0.33,0.174
96685,1755598397131,68.15,-62.37,-3.84,770,767,839,900,859,34.48275862068966,-0.93,-0.33,0.173
96745,1755598397191,68.11,-62.37,-3.86,765,771,844,902,857,33.333333333333336,-0.93,-0.332,0.173
96804,1755598397250,68.16,-62.35,-3.84,769,766,843,908,851,33.333333333333336,-0.931,-0.332,0.173
96833,1755598397279,68.15,-62.35,-3.84,771,776,839,895,861,34.48275862068966,-0.93,-0.332,0.172
96863,1755598397309,68.14,-62.37,-3.84,775,771,846,892,862,33.333333333333336,-0.931,-0.331,0.171
96892,1755598397338,68.15,-62.37,-3.84,770,770,841,901,867,34.48275862068966,-0.93,-0.331,0.172
96922,1755598397368,68.15,-62.36,-3.84,767,769,849,906,862,33.333333333333336,-0.93,-0.332,0.173
96951,1755598397398,68.15,-62.37,-3.83,765,772,841,898,855,34.48275862068966,-0.93,-0.332,0.172
96981,1755598397427,68.17,-62.41,-3.84,769,771,846,901,860,33.333333333333336,-0.93,-0.331,0.172
97011,1755598397457,68.15,-62.41,-3.84,770,768,846,904,862,33.333333333333336,-0.93,-0.331,0.172
97041,1755598397487,68.17,-62.41,-3.85,765,759,833,903,860,33.333333333333336,-0.929,-0.331,0.173
97100,1755598397546,68.14,-62.41,-3.88,768,771,847,903,857,33.333333333333336,-0.93,-0.332,0.173
97130,1755598397576,68.15,-62.41,-3.87,769,767,855,898,864,33.333333333333336,-0.931,-0.332,0.172
97159,1755598397605,68.16,-62.4,-3.88,770,772,846,908,852,34.48275862068966,-0.929,-0.331,0.173
97189,1755598397635,68.13,-62.39,-3.9,771,765,846,900,862,33.333333333333336,-0.929,-0.332,0.173
97218,1755598397665,68.13,-62.41,-3.91,770,767,839,899,860,34.48275862068966,-0.93,-0.333,0.172
97248,1755598397694,68.16,-62.42,-3.91,763,771,834,897,858,33.333333333333336,-0.93,-0.333,0.173
97277,1755598397724,68.13,-62.4,-3.9,772,770,858,901,864,34.48275862068966,-0.929,-0.333,0.173
97307,1755598397753,68.12,-62.41,-3.9,775,767,841,898,859,33.333333333333336,-0.93,-0.333,0.172
97337,1755598397783,68.13,-62.42,-3.89,768,772,848,901,859,33.333333333333336,-0.931,-0.333,0.173
97366,1755598397812,68.12,-62.41,-3.88,772,768,841,898,863,34.48275862068966,-0.93,-0.333,0.173
97396,1755598397842,68.11,-62.4,-3.88,772,765,835,899,859,33.333333333333336,-0.93,-0.332,0.173
97425,1755598397871,68.07,-62.39,-3.88,761,766,850,901,862,34.48275862068966,-0.931,-0.333,0.172
97455,1755598397901,68.12,-62.41,-3.87,767,768,845,899,863,33.333333333333336,-0.931,-0.334,0.173
97484,1755598397930,68.09,-62.39,-3.85,769,772,844,901,856,34.48275862068966,-0.93,-0.332,0.174
97514,1755598397960,68.09,-62.38,-3.85,770,772,835,900,858,33.333333333333336,-0.931,-0.332,0.175
97543,1755598397989,68.09,-62.39,-3.85,766,769,845,905,859,34.48275862068966,-0.93,-0.331,0.175
97603,1755598398049,68.11,-62.4,-3.87,767,769,844,899,858,33.333333333333336,-0.931,-0.332,0.174
97632,1755598398078,68.05,-62.38,-3.86,768,772,848,899,868,34.48275862068966,-0.93,-0.331,0.173
97662,1755598398108,68.11,-62.39,-3.87,769,765,837,897,861,33.333333333333336,-0.93,-0.33,0.174
97721,1755598398167,68.1,-62.41,-3.89,769,771,842,900,860,33.333333333333336,-0.93,-0.333,0.173
97751,1755598398197,68.07,-62.41,-3.88,763,771,837,902,858,33.333333333333336,-0.931,-0.332,0.173
97780,1755598398227,68.09,-62.41,-3.88,766,769,844,894,864,34.48275862068966,-0.931,-0.332,0.174
97810,1755598398257,68.09,-62.38,-3.88,768,772,849,901,857,33.333333333333336,-0.929,-0.332,0.174
97830,1755598398276,68.06,-62.36,-3.88,766,769,840,895,857,50.0,-0.93,-0.333,0.174
97860,1755598398306,68.07,-62.38,-3.88,773,766,848,905,861,33.333333333333336,-0.932,-0.334,0.172
97889,1755598398335,68.09,-62.39,-3.85,772,772,840,902,860,34.48275862068966,-0.931,-0.334,0.172
97918,1755598398365,68.08,-62.4,-3.84,767,767,842,899,855,34.48275862068966,-0.93,-0.332,0.172
97948,1755598398394,68.08,-62.4,-3.84,765,773,840,900,862,33.333333333333336,-0.93,-0.33,0.174
97977,1755598398424,68.05,-62.39,-3.84,764,769,841,897,856,34.48275862068966,-0.929,-0.329,0.175
98007,1755598398453,68.08,-62.39,-3.85,769,767,846,902,863,33.333333333333336,-0.93,-0.33,0.176
98066,1755598398512,68.06,-62.35,-3.85,766,759,838,898,863,34.48275862068966,-0.929,-0.329,0.174
98096,1755598398542,68.06,-62.36,-3.86,770,773,845,898,864,33.333333333333336,-0.93,-0.33,0.173
98125,1755598398571,68.05,-62.38,-3.86,764,770,834,896,866,34.48275862068966,-0.93,-0.331,0.173
98154,1755598398601,68.04,-62.4,-3.87,765,766,836,896,859,34.48275862068966,-0.929,-0.332,0.174
98184,1755598398630,68.03,-62.37,-3.86,766,771,841,897,858,33.333333333333336,-0.931,-0.333,0.175
98214,1755598398660,68.03,-62.37,-3.84,771,772,838,893,860,33.333333333333336,-0.931,-0.333,0.175
98273,1755598398719,68.03,-62.34,-3.84,767,772,837,902,858,33.333333333333336,-0.929,-0.331,0.175
98302,1755598398748,68.01,-62.31,-3.85,773,766,838,906,860,34.48275862068966,-0.93,-0.331,0.175
98332,1755598398779,68.06,-62.34,-3.86,767,769,838,895,865,33.333333333333336,-0.93,-0.331,0.176
98352,1755598398798,68.06,-62.32,-3.87,769,764,838,900,864,50.0,-0.93,-0.331,0.177
98382,1755598398828,68.02,-62.31,-3.87,772,770,844,900,861,33.333333333333336,-0.931,-0.333,0.176
98411,1755598398858,68.03,-62.31,-3.85,765,769,842,901,861,34.48275862068966,-0.931,-0.333,0.175
98441,1755598398887,68.03,-62.3,-3.84,768,768,849,896,857,33.333333333333336,-0.931,-0.332,0.175
98501,1755598398947,68.03,-62.31,-3.83,771,771,841,899,861,33.333333333333336,-0.929,-0.331,0.176
98530,1755598398976,68.02,-62.28,-3.84,767,769,845,901,861,34.48275862068966,-0.93,-0.331,0.177
98560,1755598399006,68.02,-62.27,-3.83,767,763,841,902,866,33.333333333333336,-0.931,-0.331,0.176
98589,1755598399036,68.05,-62.26,-3.84,770,766,844,904,861,34.48275862068966,-0.929,-0.331,0.176
98619,1755598399065,68.03,-62.24,-3.84,772,774,841,900,857,33.333333333333336,-0.929,-0.332,0.176
98648,1755598399094,68.03,-62.22,-3.83,770,767,849,899,865,34.48275862068966,-0.931,-0.332,0.176
98678,1755598399124,68.07,-62.21,-3.81,766,760,841,899,867,33.333333333333336,-0.932,-0.332,0.175
98708,1755598399154,68.08,-62.21,-3.79,768,767,829,902,863,33.333333333333336,-0.929,-0.331,0.175
98738,1755598399184,68.06,-62.22,-3.8,767,766,842,895,863,33.333333333333336,-0.929,-0.33,0.174
98767,1755598399214,68.03,-62.22,-3.8,769,762,840,896,859,34.48275862068966,-0.93,-0.329,0.175
98827,1755598399273,68.05,-62.19,-3.81,765,767,839,896,864,33.333333333333336,-0.929,-0.328,0.177
98856,1755598399303,68.05,-62.18,-3.83,773,768,848,902,864,34.48275862068966,-0.929,-0.329,0.175
98886,1755598399333,68.05,-62.21,-3.84,767,769,841,895,869,33.333333333333336,-0.93,-0.331,0.174
98916,1755598399362,68.04,-62.2,-3.82,772,771,847,901,857,33.333333333333336,-0.932,-0.332,0.174
98946,1755598399392,68.06,-62.19,-3.82,765,768,845,901,864,33.333333333333336,-0.93,-0.331,0.176
99025,1755598399471,68.06,-62.13,-3.82,771,773,847,897,876,33.333333333333336,-0.931,-0.33,0.174
99054,1755598399501,68.07,-62.13,-3.82,769,762,833,903,856,34.48275862068966,-0.93,-0.331,0.174
99084,1755598399530,68.04,-62.14,-3.82,766,766,835,896,862,33.333333333333336,-0.93,-0.332,0.174
99113,1755598399560,68.07,-62.16,-3.82,771,772,839,901,865,34.48275862068966,-0.93,-0.331,0.175
99143,1755598399589,68.08,-62.15,-3.81,768,768,842,894,853,33.333333333333336,-0.93,-0.33,0.176
99173,1755598399619,68.09,-62.14,-3.82,770,759,845,892,862,33.333333333333336,-0.93,-0.329,0.176
99202,1755598399648,68.09,-62.13,-3.82,772,766,837,904,856,34.48275862068966,-0.931,-0.329,0.176
99232,1755598399678,68.08,-62.11,-3.81,765,763,836,900,865,33.333333333333336,-0.93,-0.33,0.175
99261,1755598399707,68.1,-62.12,-3.81,770,769,843,900,859,34.48275862068966,-0.93,-0.332,0.174
99291,1755598399737,68.1,-62.14,-3.8,766,760,836,908,856,33.333333333333336,-0.931,-0.331,0.174
99320,1755598399767,68.09,-62.15,-3.78,767,760,835,902,862,34.48275862068966,-0.931,-0.33,0.175
99350,1755598399796,68.11,-62.14,-3.78,763,769,830,902,860,33.333333333333336,-0.931,-0.33,0.176
99380,1755598399826,68.13,-62.12,-3.78,766,770,832,895,860,33.333333333333336,-0.929,-0.329,0.176
99409,1755598399855,68.13,-62.11,-3.79,768,772,844,899,859,34.48275862068966,-0.93,-0.33,0.175
99439,1755598399885,68.12,-62.12,-3.79,771,768,846,900,858,33.333333333333336,-0.932,-0.33,0.175
99468,1755598399915,68.14,-62.11,-3.78,771,768,836,893,862,34.48275862068966,-0.93,-0.329,0.175
99498,1755598399944,68.14,-62.11,-3.79,768,773,844,894,857,33.333333333333336,-0.93,-0.329,0.175
99528,1755598399974,68.15,-62.1,-3.79,766,761,842,901,857,33.333333333333336,-0.931,-0.33,0.175
99557,1755598400004,68.15,-62.08,-3.79,763,768,845,903,861,34.48275862068966,-0.93,-0.33,0.175
99578,1755598400024,68.15,-62.08,-3.79,767,763,840,902,859,47.61904761904762,-0.93,-0.33,0.174
99607,1755598400053,68.15,-62.09,-3.79,770,760,839,903,867,34.48275862068966,-0.93,-0.33,0.173
99637,1755598400083,68.17,-62.08,-3.79,768,768,845,901,867,33.333333333333336,-0.931,-0.33,0.173
99666,1755598400112,68.17,-62.09,-3.8,767,769,853,902,867,34.48275862068966,-0.93,-0.33,0.174
99696,1755598400142,68.18,-62.1,-3.79,769,774,842,900,867,33.333333333333336,-0.931,-0.331,0.174
99726,1755598400172,68.19,-62.09,-3.79,770,772,834,900,861,33.333333333333336,-0.93,-0.33,0.174
99755,1755598400201,68.19,-62.1,-3.8,767,772,832,900,868,34.48275862068966,-0.929,-0.33,0.173
99785,1755598400231,68.2,-62.12,-3.81,769,778,844,896,860,33.333333333333336,-0.931,-0.33,0.173
99814,1755598400261,68.19,-62.12,-3.81,767,772,847,896,860,34.48275862068966,-0.932,-0.331,0.173
99834,1755598400281,68.19,-62.11,-3.8,775,773,840,906,864,50.0,-0.931,-0.331,0.173
99855,1755598400301,68.2,-62.11,-3.79,764,773,841,898,866,47.61904761904762,-0.93,-0.331,0.173
99884,1755598400331,68.2,-62.11,-3.8,773,766,842,899,871,34.48275862068966,-0.929,-0.33,0.173
99914,1755598400361,68.2,-62.11,-3.81,772,773,841,902,866,33.333333333333336,-0.931,-0.33,0.173
99944,1755598400390,68.19,-62.12,-3.81,763,768,843,902,860,33.333333333333336,-0.932,-0.33,0.174
100003,1755598400449,68.22,-62.12,-3.79,768,768,836,896,862,33.333333333333336,-0.93,-0.33,0.174
100033,1755598400479,68.19,-62.12,-3.81,773,768,841,902,860,33.333333333333336,-0.929,-0.33,0.173
100062,1755598400509,68.16,-62.12,-3.83,769,761,833,892,857,34.48275862068966,-0.931,-0.331,0.172
100082,1755598400528,68.13,-62.12,-3.83,765,761,840,896,861,50.0,-0.932,-0.331,0.171
100112,1755598400558,68.12,-62.15,-3.84,768,766,840,899,854,33.333333333333336,-0.93,-0.331,0.171
100141,1755598400588,68.16,-62.17,-3.85,767,769,845,906,853,34.48275862068966,-0.931,-0.331,0.174
100171,1755598400618,68.12,-62.16,-3.84,768,772,844,900,865,33.333333333333336,-0.931,-0.332,0.175
100201,1755598400647,68.13,-62.15,-3.83,771,768,836,900,861,33.333333333333336,-0.932,-0.333,0.175
100230,1755598400677,68.15,-62.15,-3.82,771,770,836,898,854,34.48275862068966,-0.932,-0.331,0.174
100281,1755598400727,68.12,-62.17,-3.82,771,765,843,895,864,33.333333333333336,-0.93,-0.33,0.173
100310,1755598400756,68.13,-62.19,-3.82,767,769,842,904,862,34.48275862068966,-0.931,-0.33,0.174
100340,1755598400786,68.15,-62.17,-3.81,769,769,829,893,864,33.333333333333336,-0.931,-0.33,0.176
100369,1755598400816,68.14,-62.15,-3.81,768,769,842,900,858,34.48275862068966,-0.931,-0.33,0.175
100399,1755598400846,68.15,-62.15,-3.81,772,767,832,894,858,33.333333333333336,-0.93,-0.33,0.174
100429,1755598400875,68.14,-62.14,-3.82,767,766,840,899,865,33.333333333333336,-0.93,-0.33,0.173
100458,1755598400904,68.13,-62.14,-3.81,772,774,845,906,863,34.48275862068966,-0.931,-0.33,0.173
100488,1755598400934,68.14,-62.15,-3.8,771,760,832,895,855,33.333333333333336,-0.932,-0.331,0.175
100517,1755598400964,68.16,-62.13,-3.79,772,766,851,902,865,34.48275862068966,-0.93,-0.33,0.175
100547,1755598400993,68.17,-62.11,-3.79,767,769,845,902,863,33.333333333333336,-0.929,-0.33,0.174
100576,1755598401023,68.16,-62.11,-3.78,769,771,845,902,869,34.48275862068966,-0.931,-0.33,0.173
100606,1755598401053,68.17,-62.12,-3.77,768,768,841,902,860,33.333333333333336,-0.931,-0.329,0.173
100636,1755598401082,68.16,-62.11,-3.77,763,770,840,901,854,33.333333333333336,-0.93,-0.329,0.174
100665,1755598401112,68.18,-62.11,-3.78,772,775,847,898,863,34.48275862068966,-0.929,-0.329,0.174
100725,1755598401171,68.17,-62.1,-3.77,770,768,839,897,867,33.333333333333336,-0.931,-0.329,0.174
100784,1755598401230,68.17,-62.1,-3.77,768,770,842,903,862,33.333333333333336,-0.931,-0.329,0.173
100843,1755598401289,68.18,-62.11,-3.77,772,772,831,892,869,33.333333333333336,-0.931,-0.329,0.174
100872,1755598401319,68.13,-62.09,-3.77,764,772,833,903,872,34.48275862068966,-0.93,-0.327,0.174
100902,1755598401348,68.13,-62.1,-3.8,770,765,850,898,856,33.333333333333336,-0.93,-0.327,0.173
100932,1755598401378,68.12,-62.11,-3.81,771,778,843,896,862,33.333333333333336,-0.931,-0.329,0.174
100961,1755598401408,68.12,-62.12,-3.81,770,773,843,896,867,34.48275862068966,-0.932,-0.331,0.174
100991,1755598401437,68.14,-62.12,-3.8,776,768,835,891,862,33.333333333333336,-0.932,-0.33,0.175
101020,1755598401467,68.13,-62.11,-3.81,772,767,836,894,857,34.48275862068966,-0.93,-0.329,0.176
101070,1755598401516,68.12,-62.1,-3.82,770,774,839,893,856,33.333333333333336,-0.931,-0.33,0.175
101099,1755598401546,68.15,-62.11,-3.82,768,775,843,904,857,34.48275862068966,-0.932,-0.331,0.174
101129,1755598401575,68.14,-62.1,-3.81,772,773,844,894,867,33.333333333333336,-0.93,-0.33,0.174
101159,1755598401605,68.15,-62.09,-3.81,773,764,839,895,861,33.333333333333336,-0.93,-0.329,0.174
101218,1755598401664,68.15,-62.09,-3.81,772,766,838,899,857,33.333333333333336,-0.931,-0.33,0.174
101248,1755598401694,68.15,-62.09,-3.8,764,767,844,903,863,33.333333333333336,-0.931,-0.33,0.174
101277,1755598401723,68.15,-62.09,-3.8,767,759,837,898,857,34.48275862068966,-0.93,-0.33,0.173
101336,1755598401782,68.14,-62.1,-3.81,768,762,829,903,865,34.48275862068966,-0.931,-0.33,0.173
101366,1755598401812,68.15,-62.1,-3.81,771,766,840,897,865,33.333333333333336,-0.931,-0.33,0.175
101395,1755598401841,68.14,-62.09,-3.8,767,763,840,899,858,34.48275862068966,-0.931,-0.33,0.174
101425,1755598401871,68.13,-62.08,-3.8,766,771,844,896,857,33.333333333333336,-0.93,-0.33,0.173
101454,1755598401900,68.16,-62.1,-3.81,764,767,837,903,874,34.48275862068966,-0.931,-0.33,0.174
101484,1755598401930,68.14,-62.1,-3.81,769,769,842,903,865,33.333333333333336,-0.931,-0.331,0.174
101543,1755598401989,68.14,-62.11,-3.8,773,769,834,902,858,33.333333333333336,-0.932,-0.331,0.174
101572,1755598402018,68.15,-62.11,-3.8,766,765,851,897,858,34.48275862068966,-0.93,-0.33,0.173
101602,1755598402048,68.16,-62.12,-3.8,772,764,836,896,858,33.333333333333336,-0.93,-0.33,0.173
101631,1755598402078,68.13,-62.14,-3.79,765,768,842,902,862,34.48275862068966,-0.931,-0.33,0.173
101661,1755598402107,68.15,-62.16,-3.79,764,764,845,898,867,33.333333333333336,-0.931,-0.33,0.174
101691,1755598402137,68.14,-62.14,-3.79,767,767,849,899,871,33.333333333333336,-0.93,-0.33,0.174
101721,1755598402167,68.15,-62.15,-3.79,771,771,842,899,853,33.333333333333336,-0.93,-0.33,0.174
101741,1755598402187,68.15,-62.15,-3.8,766,772,840,903,863,50.0,-0.931,-0.331,0.173
101800,1755598402247,68.13,-62.17,-3.78,774,771,844,896,857,33.333333333333336,-0.931,-0.331,0.174
101820,1755598402266,67.83,-62.17,-3.79,768,775,837,894,868,50.0,-0.93,-0.33,0.175
101850,1755598402296,67.83,-62.16,-3.79,770,769,841,901,858,33.333333333333336,-0.93,-0.33,0.175
101879,1755598402326,67.85,-62.16,-3.8,769,767,841,901,865,34.48275862068966,-0.931,-0.33,0.174
101939,1755598402385,67.86,-62.17,-3.81,771,769,839,895,859,33.333333333333336,-0.93,-0.33,0.173
101968,1755598402415,67.83,-62.16,-3.81,767,770,840,906,860,34.48275862068966,-0.931,-0.329,0.174
101998,1755598402444,67.85,-62.18,-3.82,773,772,847,895,862,33.333333333333336,-0.932,-0.331,0.174
