timestamp_ms,recv_timestamp_ms,pitch,roll,yaw,flex1,flex2,flex3,flex4,flex5,sampling_hz,accel_x,accel_y,accel_z
138615,1755603104076,18.5,-30.29,-4.66,772,783,776,347,837,34.48275862068966,-0.318,-0.491,0.808
138644,1755603104077,18.5,-30.34,-4.65,775,777,775,309,830,34.48275862068966,-0.317,-0.494,0.81
138674,1755603104079,18.48,-30.32,-4.62,774,775,779,345,833,33.333333333333336,-0.318,-0.495,0.814
138703,1755603104082,18.43,-30.25,-4.61,773,777,775,412,817,34.48275862068966,-0.314,-0.49,0.812
138733,1755603104084,18.41,-30.26,-4.64,774,783,772,383,830,33.333333333333336,-0.314,-0.487,0.81
138763,1755603104086,18.38,-30.37,-4.68,768,785,781,298,822,33.333333333333336,-0.317,-0.49,0.813
138792,1755603104088,18.35,-30.38,-4.67,774,779,771,328,824,34.48275862068966,-0.316,-0.493,0.816
138822,1755603104090,18.37,-30.37,-4.66,769,776,773,385,826,33.333333333333336,-0.313,-0.493,0.815
138851,1755603104092,18.37,-30.4,-4.7,772,773,776,399,817,34.48275862068966,-0.311,-0.492,0.812
138881,1755603104093,18.32,-30.46,-4.75,775,781,771,305,832,33.333333333333336,-0.312,-0.492,0.813
138911,1755603104096,18.31,-30.46,-4.77,767,775,773,321,829,33.333333333333336,-0.315,-0.494,0.817
138941,1755603104098,18.36,-30.4,-4.75,772,781,773,382,822,33.333333333333336,-0.316,-0.495,0.817
138970,1755603104100,18.37,-30.39,-4.75,765,781,771,432,827,34.48275862068966,-0.314,-0.494,0.811
139000,1755603104102,18.33,-30.4,-4.76,768,775,776,385,831,33.333333333333336,-0.313,-0.493,0.81
139030,1755603104104,18.34,-30.42,-4.75,767,777,772,304,824,33.333333333333336,-0.315,-0.493,0.813
139059,1755603104106,18.35,-30.39,-4.74,772,776,777,329,822,34.48275862068966,-0.314,-0.492,0.815
139089,1755603104108,18.36,-30.39,-4.72,772,783,772,432,824,33.333333333333336,-0.314,-0.492,0.813
139148,1755603104112,18.29,-30.41,-4.71,772,775,768,317,824,33.333333333333336,-0.31,-0.494,0.813
139177,1755603104115,18.32,-30.42,-4.71,768,770,775,323,828,34.48275862068966,-0.309,-0.492,0.813
139207,1755603104117,18.27,-30.45,-4.75,768,782,774,406,821,33.333333333333336,-0.312,-0.492,0.811
139236,1755603104119,18.22,-30.44,-4.73,771,780,772,426,832,34.48275862068966,-0.314,-0.493,0.813
139266,1755603104120,18.28,-30.47,-4.71,769,782,774,378,818,33.333333333333336,-0.314,-0.492,0.813
139296,1755603104122,18.26,-30.46,-4.7,776,780,776,284,826,33.333333333333336,-0.314,-0.491,0.812
139325,1755603104124,18.21,-30.43,-4.7,777,785,768,351,827,34.48275862068966,-0.313,-0.492,0.812
139355,1755603104126,18.24,-30.47,-4.7,774,776,777,444,827,33.333333333333336,-0.309,-0.491,0.814
139384,1755603104128,18.29,-30.47,-4.69,770,776,772,424,825,34.48275862068966,-0.311,-0.49,0.815
139414,1755603104131,18.23,-30.44,-4.7,769,781,768,323,823,33.333333333333336,-0.314,-0.491,0.812
139444,1755603104133,18.22,-30.45,-4.68,775,781,766,329,817,33.333333333333336,-0.316,-0.492,0.81
139473,1755603104135,18.3,-30.55,-4.64,773,778,769,417,830,34.48275862068966,-0.315,-0.492,0.809
139503,1755603104137,18.29,-30.57,-4.6,775,782,768,428,828,33.333333333333336,-0.315,-0.492,0.811
139532,1755603104139,18.2,-30.43,-4.52,768,780,766,368,827,34.48275862068966,-0.314,-0.494,0.817
139562,1755603104141,18.23,-30.29,-4.42,771,780,775,311,831,33.333333333333336,-0.307,-0.49,0.813
139592,1755603104142,18.41,-30.37,-4.31,770,780,771,351,822,33.333333333333336,-0.312,-0.488,0.812
139612,1755603104145,18.43,-30.39,-4.27,773,773,772,349,831,50.0,-0.316,-0.488,0.814
139641,1755603104147,18.4,-30.34,-4.26,774,781,772,387,829,34.48275862068966,-0.315,-0.487,0.818
139671,1755603104149,18.42,-30.27,-4.28,773,777,776,464,833,33.333333333333336,-0.311,-0.486,0.816
139700,1755603104151,18.39,-30.24,-4.33,776,775,769,412,826,34.48275862068966,-0.311,-0.487,0.814
139730,1755603104153,18.28,-30.19,-4.36,773,772,773,320,825,33.333333333333336,-0.315,-0.488,0.813
139759,1755603104156,18.31,-30.21,-4.37,768,777,766,343,828,34.48275862068966,-0.316,-0.488,0.814
139789,1755603104157,18.34,-30.14,-4.33,774,780,767,423,835,33.333333333333336,-0.316,-0.488,0.816
139819,1755603104160,18.32,-30.08,-4.32,774,771,779,433,820,33.333333333333336,-0.313,-0.483,0.813
139849,1755603104162,18.26,-30.09,-4.38,768,775,770,355,828,33.333333333333336,-0.311,-0.48,0.811
139878,1755603104164,18.23,-30.14,-4.45,767,781,769,317,835,34.48275862068966,-0.312,-0.478,0.814
139908,1755603104166,18.23,-30.17,-4.5,770,785,775,365,828,33.333333333333336,-0.314,-0.48,0.816
139938,1755603104168,18.25,-30.17,-4.53,774,781,771,393,821,33.333333333333336,-0.315,-0.482,0.815
139967,1755603104170,18.23,-30.17,-4.53,773,786,772,404,823,34.48275862068966,-0.313,-0.484,0.812
139996,1755603104172,18.23,-30.21,-4.55,775,780,777,302,819,34.48275862068966,-0.311,-0.484,0.813
140056,1755603104177,18.2,-30.26,-4.62,772,780,766,418,826,33.333333333333336,-0.311,-0.483,0.817
140085,1755603104179,18.2,-30.25,-4.61,764,779,772,428,818,34.48275862068966,-0.312,-0.48,0.817
140115,1755603104181,18.26,-30.25,-4.57,771,780,777,341,833,33.333333333333336,-0.314,-0.476,0.819
140144,1755603104183,18.32,-30.31,-4.58,773,788,774,317,825,34.48275862068966,-0.314,-0.473,0.816
140262,1755603104191,18.27,-30.44,-4.59,776,780,779,318,815,33.333333333333336,-0.307,-0.495,0.811
140291,1755603104193,18.32,-30.51,-4.6,776,779,779,352,826,34.48275862068966,-0.305,-0.49,0.815
140321,1755603104195,18.2,-30.49,-4.66,774,778,771,452,826,33.333333333333336,-0.309,-0.49,0.816
140351,1755603104198,18.16,-30.56,-4.7,771,782,770,428,827,33.333333333333336,-0.312,-0.491,0.811
140380,1755603104199,18.2,-30.65,-4.67,774,780,773,307,823,34.48275862068966,-0.312,-0.489,0.809
140410,1755603104202,18.19,-30.7,-4.63,773,774,773,325,819,33.333333333333336,-0.312,-0.49,0.813
140439,1755603104204,18.16,-30.72,-4.62,772,782,774,418,822,34.48275862068966,-0.311,-0.493,0.814
140469,1755603104206,18.16,-30.77,-4.61,769,779,776,430,828,33.333333333333336,-0.311,-0.493,0.813
140499,1755603104208,18.17,-30.79,-4.56,774,784,772,369,822,33.333333333333336,-0.311,-0.494,0.814
140528,1755603104211,18.15,-30.78,-4.53,770,779,770,301,814,34.48275862068966,-0.311,-0.493,0.815
140557,1755603104212,18.1,-30.72,-4.51,772,775,772,379,831,34.48275862068966,-0.313,-0.496,0.815
140587,1755603104214,18.12,-30.7,-4.47,771,781,773,444,833,33.333333333333336,-0.311,-0.493,0.813
140617,1755603104216,18.15,-30.71,-4.46,775,778,776,412,827,33.333333333333336,-0.309,-0.49,0.814
140646,1755603104218,18.11,-30.65,-4.48,771,781,773,302,831,34.48275862068966,-0.307,-0.491,0.814
140676,1755603104221,18.11,-30.63,-4.5,773,780,769,327,826,33.333333333333336,-0.307,-0.49,0.811
140735,1755603104225,18.14,-30.71,-4.53,775,779,773,420,835,33.333333333333336,-0.31,-0.494,0.815
140764,1755603104227,18.16,-30.67,-4.51,769,780,765,332,820,34.48275862068966,-0.311,-0.493,0.816
140794,1755603104229,18.16,-30.6,-4.49,773,781,773,314,836,33.333333333333336,-0.309,-0.488,0.813
140823,1755603104231,18.17,-30.64,-4.53,772,780,766,400,837,34.48275862068966,-0.309,-0.487,0.814
140853,1755603104233,18.16,-30.66,-4.56,769,777,773,442,828,33.333333333333336,-0.309,-0.488,0.814
140882,1755603104234,18.19,-30.65,-4.57,775,778,775,382,825,34.48275862068966,-0.315,-0.49,0.817
140912,1755603104236,18.21,-30.62,-4.56,770,778,767,317,824,33.333333333333336,-0.314,-0.491,0.816
140942,1755603104239,18.2,-30.62,-4.56,771,774,775,340,834,33.333333333333336,-0.313,-0.489,0.814
140971,1755603104241,18.18,-30.66,-4.57,771,776,774,441,831,34.48275862068966,-0.311,-0.488,0.814
141001,1755603104243,18.11,-30.64,-4.58,769,783,766,420,821,33.333333333333336,-0.309,-0.49,0.82
141021,1755603104245,18.09,-30.6,-4.59,772,782,775,393,820,50.0,-0.306,-0.489,0.821
141051,1755603104247,18.05,-30.55,-4.64,766,782,773,405,828,33.333333333333336,-0.307,-0.488,0.817
141081,1755603104249,17.97,-30.58,-4.71,765,776,781,282,828,33.333333333333336,-0.311,-0.489,0.812
141110,1755603104252,17.92,-30.61,-4.73,776,774,775,295,826,34.48275862068966,-0.313,-0.492,0.812
141170,1755603104255,17.95,-30.62,-4.64,771,776,772,424,824,33.333333333333336,-0.312,-0.493,0.818
141199,1755603104258,18.0,-30.61,-4.61,776,782,771,400,822,34.48275862068966,-0.308,-0.491,0.818
141228,1755603104260,17.98,-30.58,-4.61,769,784,776,302,828,34.48275862068966,-0.306,-0.487,0.818
141287,1755603104263,17.98,-30.62,-4.64,772,774,775,446,827,34.48275862068966,-0.307,-0.49,0.818
141317,1755603104266,18.0,-30.61,-4.63,775,787,770,436,834,33.333333333333336,-0.31,-0.491,0.819
141346,1755603104268,18.04,-30.58,-4.59,772,777,773,318,835,34.48275862068966,-0.31,-0.494,0.818
141376,1755603104282,18.01,-30.57,-4.55,774,776,776,338,822,33.333333333333336,-0.307,-0.495,0.815
141406,1755603104311,18.0,-30.56,-4.54,774,781,768,412,826,33.333333333333336,-0.303,-0.493,0.817
141435,1755603104341,18.02,-30.56,-4.54,775,780,776,420,830,34.48275862068966,-0.3,-0.487,0.817
141465,1755603104370,18.04,-30.57,-4.59,771,777,766,344,831,33.333333333333336,-0.299,-0.481,0.816
141494,1755603104400,18.01,-30.62,-4.71,772,782,770,319,825,34.48275862068966,-0.302,-0.477,0.815
141553,1755603104460,18.08,-30.8,-4.87,777,784,775,436,828,33.333333333333336,-0.307,-0.49,0.81
141583,1755603104489,18.31,-30.99,-4.86,774,778,770,402,825,33.333333333333336,-0.309,-0.495,0.81
141603,1755603104509,18.36,-31.06,-4.89,771,781,773,398,823,50.0,-0.312,-0.499,0.814
141633,1755603104539,18.27,-30.98,-4.95,776,788,777,383,827,33.333333333333336,-0.309,-0.501,0.82
141662,1755603104568,18.27,-30.89,-4.98,772,784,767,313,815,34.48275862068966,-0.308,-0.501,0.82
141692,1755603104598,18.35,-30.93,-4.97,771,778,771,328,831,33.333333333333336,-0.31,-0.496,0.813
141721,1755603104627,18.34,-30.98,-4.98,770,781,765,428,830,34.48275862068966,-0.31,-0.493,0.812
141751,1755603104657,18.31,-30.99,-5.01,771,783,767,414,830,33.333333333333336,-0.309,-0.496,0.816
141780,1755603104686,18.4,-31.03,-5.01,767,773,769,314,838,34.48275862068966,-0.308,-0.495,0.819
141810,1755603104716,18.46,-31.0,-5.0,773,785,769,318,818,33.333333333333336,-0.309,-0.493,0.815
141839,1755603104745,18.4,-31.0,-5.04,770,784,777,394,832,34.48275862068966,-0.31,-0.497,0.809
141869,1755603104775,18.34,-31.06,-5.05,774,776,769,438,825,33.333333333333336,-0.313,-0.501,0.811
141899,1755603104805,18.38,-31.04,-4.99,772,781,766,348,824,33.333333333333336,-0.314,-0.502,0.815
141928,1755603104835,18.4,-30.97,-4.93,777,775,770,301,828,34.48275862068966,-0.311,-0.498,0.813
141958,1755603104864,18.38,-30.99,-4.93,771,781,776,341,822,33.333333333333336,-0.308,-0.495,0.809
141988,1755603104894,18.37,-31.04,-4.96,772,784,778,443,819,33.333333333333336,-0.307,-0.496,0.81
142017,1755603104923,18.38,-31.07,-4.96,775,789,776,410,829,34.48275862068966,-0.308,-0.496,0.812
142047,1755603104953,18.41,-31.08,-4.98,769,786,775,322,827,33.333333333333336,-0.311,-0.498,0.813
142077,1755603104983,18.41,-31.09,-4.96,774,781,776,329,821,33.333333333333336,-0.311,-0.499,0.81
142106,1755603105013,18.38,-31.1,-4.96,768,783,772,413,821,34.48275862068966,-0.312,-0.5,0.811
142136,1755603105042,18.35,-31.11,-4.95,774,779,769,443,829,33.333333333333336,-0.311,-0.501,0.815
142166,1755603105072,18.4,-31.06,-4.92,766,781,771,402,831,33.333333333333336,-0.31,-0.499,0.813
142196,1755603105102,18.37,-31.06,-4.94,773,778,767,314,827,33.333333333333336,-0.31,-0.496,0.809
142225,1755603105131,18.33,-31.07,-4.97,774,773,767,297,825,34.48275862068966,-0.309,-0.499,0.811
142255,1755603105161,18.42,-31.04,-4.97,775,771,777,428,827,33.333333333333336,-0.308,-0.502,0.815
142284,1755603105190,18.49,-30.98,-4.98,774,779,781,404,818,34.48275862068966,-0.306,-0.501,0.814
142314,1755603105220,18.52,-30.96,-5.03,768,779,772,333,821,33.333333333333336,-0.306,-0.496,0.806
142373,1755603105279,18.57,-31.12,-5.14,773,774,775,399,831,33.333333333333336,-0.316,-0.498,0.81
142403,1755603105309,18.61,-31.08,-5.1,770,771,772,433,831,33.333333333333336,-0.317,-0.498,0.816
142432,1755603105338,18.69,-31.04,-5.06,772,778,771,356,834,34.48275862068966,-0.314,-0.498,0.812
142462,1755603105368,18.7,-31.06,-5.04,777,780,775,290,835,33.333333333333336,-0.31,-0.498,0.806
142491,1755603105397,18.67,-31.11,-5.05,773,787,767,312,835,34.48275862068966,-0.311,-0.496,0.805
142521,1755603105427,18.62,-31.16,-5.07,775,778,765,430,828,33.333333333333336,-0.314,-0.499,0.811
142550,1755603105456,18.66,-31.17,-5.06,770,779,771,420,832,34.48275862068966,-0.315,-0.501,0.813
142609,1755603105516,18.69,-31.26,-5.02,773,775,769,335,827,34.48275862068966,-0.317,-0.495,0.805
142639,1755603105545,18.68,-31.32,-4.99,772,784,774,432,831,33.333333333333336,-0.317,-0.498,0.809
142669,1755603105575,18.68,-31.33,-4.95,772,775,781,441,833,33.333333333333336,-0.318,-0.498,0.811
142719,1755603105625,18.67,-31.38,-4.96,773,774,772,370,830,33.333333333333336,-0.316,-0.5,0.806
142748,1755603105654,18.71,-31.4,-5.0,774,781,772,338,821,34.48275862068966,-0.315,-0.502,0.805
142778,1755603105683,18.74,-31.41,-5.05,774,777,776,294,820,33.333333333333336,-0.317,-0.505,0.805
142807,1755603105713,18.78,-31.45,-5.09,771,780,771,356,825,34.48275862068966,-0.315,-0.507,0.807
142836,1755603105743,18.75,-31.38,-5.14,769,786,777,434,832,34.48275862068966,-0.312,-0.507,0.81
142866,1755603105772,18.73,-31.31,-5.2,770,777,777,419,835,33.333333333333336,-0.313,-0.509,0.812
142895,1755603105802,18.71,-31.23,-5.21,772,780,769,278,831,34.48275862068966,-0.314,-0.506,0.81
142925,1755603105831,18.69,-31.2,-5.23,768,785,769,279,825,33.333333333333336,-0.314,-0.493,0.808
142955,1755603105861,18.64,-31.24,-5.28,767,778,768,421,825,33.333333333333336,-0.318,-0.49,0.81
142984,1755603105891,18.56,-31.25,-5.31,771,779,768,426,821,34.48275862068966,-0.321,-0.491,0.813
143044,1755603105950,18.58,-31.29,-5.21,770,782,768,322,823,33.333333333333336,-0.318,-0.5,0.808
143074,1755603105980,18.52,-31.32,-5.19,769,779,778,356,823,33.333333333333336,-0.315,-0.502,0.807
143103,1755603106009,18.47,-31.28,-5.15,772,781,768,439,827,34.48275862068966,-0.317,-0.503,0.81
143133,1755603106039,18.35,-31.22,-5.13,774,774,773,399,823,33.333333333333336,-0.318,-0.505,0.81
143162,1755603106068,18.22,-31.16,-5.09,776,779,775,314,819,34.48275862068966,-0.314,-0.509,0.808
143192,1755603106098,18.27,-31.16,-5.0,774,781,776,346,827,33.333333333333336,-0.313,-0.508,0.81
143221,1755603106128,18.27,-31.09,-4.92,767,779,774,438,829,34.48275862068966,-0.309,-0.501,0.812
143251,1755603106157,18.2,-31.04,-4.94,771,778,775,432,817,33.333333333333336,-0.303,-0.497,0.812
143281,1755603106187,18.19,-31.0,-4.95,778,787,774,345,820,33.333333333333336,-0.307,-0.495,0.814
143310,1755603106216,18.17,-31.0,-4.96,778,775,777,308,824,34.48275862068966,-0.307,-0.494,0.812
143340,1755603106246,18.17,-31.01,-4.96,771,780,772,360,818,33.333333333333336,-0.309,-0.496,0.812
143370,1755603106276,18.14,-30.99,-4.95,773,777,768,441,826,33.333333333333336,-0.309,-0.494,0.813
143399,1755603106305,18.1,-31.02,-4.96,772,780,778,394,827,34.48275862068966,-0.308,-0.493,0.812
143429,1755603106335,18.11,-31.04,-4.95,769,782,766,300,830,33.333333333333336,-0.309,-0.495,0.814
143458,1755603106364,18.1,-31.07,-4.95,765,784,770,348,828,34.48275862068966,-0.309,-0.496,0.813
143487,1755603106393,18.05,-31.06,-4.98,773,780,777,445,821,34.48275862068966,-0.308,-0.498,0.812
143517,1755603106424,17.96,-30.97,-5.02,771,785,767,413,826,33.333333333333336,-0.31,-0.501,0.816
143567,1755603106473,17.76,-30.82,-5.09,769,787,769,410,822,33.333333333333336,-0.304,-0.497,0.815
143596,1755603106502,17.81,-30.82,-5.09,772,780,766,315,830,34.48275862068966,-0.305,-0.492,0.815
143626,1755603106532,17.82,-30.81,-5.11,769,784,780,329,823,33.333333333333336,-0.308,-0.494,0.821
143655,1755603106561,17.85,-30.72,-5.13,775,778,776,412,829,34.48275862068966,-0.305,-0.495,0.818
143685,1755603106591,17.88,-30.72,-5.14,774,777,779,417,825,33.333333333333336,-0.305,-0.492,0.811
143715,1755603106621,17.82,-30.82,-5.2,772,779,769,375,827,33.333333333333336,-0.305,-0.491,0.811
143744,1755603106650,17.81,-30.81,-5.23,779,785,773,321,825,34.48275862068966,-0.305,-0.492,0.818
143774,1755603106680,17.84,-30.78,-5.23,773,782,779,356,825,33.333333333333336,-0.304,-0.493,0.817
143803,1755603106710,17.86,-30.81,-5.24,776,781,776,453,819,34.48275862068966,-0.303,-0.492,0.812
143833,1755603106739,17.83,-30.87,-5.27,770,779,770,434,828,33.333333333333336,-0.302,-0.492,0.812
143853,1755603106759,17.81,-30.89,-5.28,771,786,771,409,823,50.0,-0.303,-0.495,0.815
143883,1755603106789,17.83,-30.88,-5.27,771,780,782,419,824,33.333333333333336,-0.303,-0.496,0.818
143912,1755603106818,17.84,-30.89,-5.26,773,775,770,305,833,34.48275862068966,-0.301,-0.495,0.816
143942,1755603106848,17.85,-30.91,-5.27,773,779,773,326,822,33.333333333333336,-0.301,-0.495,0.815
143971,1755603106877,17.83,-30.92,-5.26,772,778,773,421,823,34.48275862068966,-0.302,-0.497,0.816
144001,1755603106907,17.8,-30.91,-5.24,768,785,777,429,823,33.333333333333336,-0.3,-0.497,0.817
144031,1755603106937,17.74,-30.89,-5.23,773,773,778,305,830,33.333333333333336,-0.3,-0.496,0.817
144051,1755603106957,17.67,-30.88,-5.25,776,777,776,379,827,50.0,-0.301,-0.496,0.819
144110,1755603107016,17.72,-30.8,-5.17,772,780,775,296,832,33.333333333333336,-0.306,-0.494,0.817
144139,1755603107045,17.69,-30.84,-5.15,773,772,765,381,829,34.48275862068966,-0.304,-0.494,0.814
144198,1755603107104,17.8,-30.74,-5.04,774,780,774,388,822,34.48275862068966,-0.302,-0.497,0.82
144228,1755603107134,17.85,-30.7,-5.02,774,781,772,311,824,33.333333333333336,-0.303,-0.494,0.816
144258,1755603107164,17.85,-30.71,-5.02,772,781,779,339,830,33.333333333333336,-0.305,-0.492,0.813
144278,1755603107185,17.85,-30.73,-5.01,771,780,771,366,824,50.0,-0.305,-0.49,0.813
144318,1755603107224,17.83,-30.74,-5.0,774,781,772,462,835,50.0,-0.302,-0.486,0.82
144348,1755603107254,17.82,-30.74,-5.01,775,781,767,374,822,33.333333333333336,-0.301,-0.487,0.823
144377,1755603107283,17.84,-30.74,-5.01,773,774,770,325,821,34.48275862068966,-0.302,-0.487,0.82
144407,1755603107313,17.81,-30.77,-5.04,774,776,771,343,823,33.333333333333336,-0.303,-0.485,0.816
144436,1755603107342,17.77,-30.79,-5.06,772,781,768,441,823,34.48275862068966,-0.304,-0.488,0.818
144466,1755603107372,17.75,-30.81,-5.07,775,779,768,408,821,33.333333333333336,-0.304,-0.492,0.82
144495,1755603107401,17.76,-30.84,-5.07,766,778,770,295,816,34.48275862068966,-0.302,-0.492,0.818
144525,1755603107431,17.77,-30.85,-5.08,776,778,773,318,823,33.333333333333336,-0.301,-0.492,0.823
144554,1755603107460,17.75,-30.85,-5.1,768,775,767,437,827,34.48275862068966,-0.303,-0.494,0.823
144584,1755603107490,17.75,-30.84,-5.11,771,779,779,428,831,33.333333333333336,-0.304,-0.494,0.822
144613,1755603107519,17.75,-30.83,-5.09,775,777,771,299,824,34.48275862068966,-0.306,-0.492,0.82
144643,1755603107549,17.73,-30.79,-5.08,771,778,777,308,826,33.333333333333336,-0.307,-0.495,0.821
144672,1755603107578,17.75,-30.77,-5.05,776,784,774,380,827,34.48275862068966,-0.306,-0.495,0.82
144702,1755603107608,17.79,-30.75,-5.03,770,780,773,436,819,33.333333333333336,-0.302,-0.49,0.818
144731,1755603107637,17.82,-30.77,-5.04,770,777,777,387,824,34.48275862068966,-0.301,-0.488,0.819
144761,1755603107667,17.81,-30.77,-5.08,771,780,771,319,827,33.333333333333336,-0.3,-0.491,0.821
144790,1755603107696,17.84,-30.75,-5.11,773,783,774,364,824,34.48275862068966,-0.3,-0.493,0.822
144820,1755603107726,17.87,-30.72,-5.12,768,776,770,450,833,33.333333333333336,-0.301,-0.492,0.819
144849,1755603107756,17.87,-30.7,-5.14,772,779,770,418,824,34.48275862068966,-0.305,-0.491,0.816
144879,1755603107786,17.87,-30.7,-5.15,774,776,768,316,816,33.333333333333336,-0.307,-0.493,0.816
144909,1755603107815,17.88,-30.68,-5.13,769,785,772,314,823,33.333333333333336,-0.307,-0.495,0.817
144939,1755603107844,17.92,-30.68,-5.1,773,773,775,401,831,33.333333333333336,-0.303,-0.495,0.817
144968,1755603107874,17.91,-30.64,-5.1,772,783,772,446,821,34.48275862068966,-0.301,-0.49,0.817
145057,1755603107963,17.98,-30.62,-5.03,774,783,774,339,828,33.333333333333336,-0.301,-0.494,0.818
145086,1755603107992,17.97,-30.65,-5.07,776,783,775,447,826,34.48275862068966,-0.301,-0.481,0.811
145116,1755603108022,17.85,-30.76,-5.23,767,779,773,410,826,33.333333333333336,-0.304,-0.476,0.812
145145,1755603108052,17.84,-30.79,-5.32,773,783,772,313,822,34.48275862068966,-0.312,-0.487,0.82
145175,1755603108081,17.93,-30.79,-5.29,771,779,769,321,832,33.333333333333336,-0.313,-0.5,0.817
145234,1755603108140,17.85,-30.71,-5.2,772,771,774,447,833,33.333333333333336,-0.299,-0.5,0.811
145264,1755603108170,17.81,-30.72,-5.25,774,776,777,361,828,33.333333333333336,-0.294,-0.495,0.814
145293,1755603108199,17.85,-30.76,-5.27,771,787,774,309,835,34.48275862068966,-0.301,-0.493,0.817
145323,1755603108229,17.86,-30.79,-5.26,774,779,768,384,826,33.333333333333336,-0.307,-0.493,0.817
145352,1755603108259,17.91,-30.83,-5.24,771,782,775,431,818,34.48275862068966,-0.308,-0.495,0.814
145382,1755603108288,17.97,-30.85,-5.21,772,784,763,397,820,33.333333333333336,-0.307,-0.495,0.812
145412,1755603108318,17.99,-30.87,-5.18,769,770,771,304,822,33.333333333333336,-0.307,-0.496,0.814
145441,1755603108348,17.99,-30.85,-5.15,777,776,774,287,817,34.48275862068966,-0.303,-0.496,0.816
145471,1755603108377,17.99,-30.87,-5.15,767,777,771,422,819,33.333333333333336,-0.302,-0.494,0.814
145501,1755603108407,17.97,-30.87,-5.2,767,780,772,432,830,33.333333333333336,-0.302,-0.491,0.813
145560,1755603108466,18.0,-30.82,-5.3,769,783,768,313,816,33.333333333333336,-0.308,-0.492,0.815
145590,1755603108496,18.01,-30.82,-5.32,771,778,771,373,827,33.333333333333336,-0.306,-0.492,0.815
145610,1755603108516,18.0,-30.83,-5.35,772,780,774,348,822,50.0,-0.304,-0.494,0.815
145639,1755603108546,17.98,-30.83,-5.41,771,778,771,391,828,34.48275862068966,-0.303,-0.494,0.814
145659,1755603108565,17.98,-30.87,-5.47,770,785,769,336,826,50.0,-0.303,-0.494,0.814
145689,1755603108594,17.98,-30.85,-5.5,771,771,766,418,824,33.333333333333336,-0.305,-0.496,0.816
145718,1755603108624,18.04,-30.85,-5.52,772,789,774,439,830,34.48275862068966,-0.305,-0.494,0.815
145748,1755603108654,18.05,-30.86,-5.57,772,779,781,398,825,33.333333333333336,-0.306,-0.495,0.813
145807,1755603108713,18.07,-30.84,-5.56,770,786,768,318,827,33.333333333333336,-0.308,-0.5,0.814
145836,1755603108742,18.13,-30.82,-5.53,773,773,773,429,827,34.48275862068966,-0.305,-0.496,0.813
145866,1755603108772,18.1,-30.83,-5.58,774,776,771,408,821,33.333333333333336,-0.306,-0.493,0.811
145895,1755603108801,18.1,-30.9,-5.6,772,774,776,310,834,34.48275862068966,-0.309,-0.495,0.813
145925,1755603108831,18.16,-30.91,-5.56,770,778,774,313,823,33.333333333333336,-0.31,-0.499,0.816
145954,1755603108860,18.19,-30.86,-5.5,779,784,776,427,833,34.48275862068966,-0.308,-0.498,0.814
145984,1755603108890,18.16,-30.86,-5.52,774,779,774,442,828,33.333333333333336,-0.306,-0.495,0.809
146013,1755603108920,18.09,-30.93,-5.53,770,785,777,340,833,34.48275862068966,-0.308,-0.495,0.809
146033,1755603108939,18.08,-30.99,-5.52,772,779,770,419,825,50.0,-0.313,-0.499,0.815
146063,1755603108969,18.08,-30.92,-5.43,772,783,770,327,831,33.333333333333336,-0.31,-0.501,0.818
146093,1755603108999,18.11,-30.92,-5.37,772,780,777,313,821,33.333333333333336,-0.304,-0.499,0.814
146123,1755603109029,18.08,-30.95,-5.38,772,775,775,348,827,33.333333333333336,-0.302,-0.496,0.812
146152,1755603109058,18.01,-30.95,-5.42,775,770,765,444,830,34.48275862068966,-0.304,-0.496,0.816
146182,1755603109088,18.07,-30.92,-5.41,774,783,769,398,833,33.333333333333336,-0.307,-0.496,0.818
146211,1755603109117,18.12,-30.92,-5.39,776,770,770,314,826,34.48275862068966,-0.309,-0.495,0.813
146241,1755603109147,18.14,-30.99,-5.4,772,785,771,334,818,33.333333333333336,-0.309,-0.502,0.814
146270,1755603109176,18.14,-30.97,-5.38,776,778,769,445,821,34.48275862068966,-0.309,-0.503,0.82
146300,1755603109206,18.12,-30.89,-5.35,775,779,771,427,822,33.333333333333336,-0.308,-0.504,0.82
146329,1755603109235,18.12,-30.84,-5.32,772,782,778,326,833,34.48275862068966,-0.309,-0.501,0.813
146359,1755603109265,18.08,-30.88,-5.31,775,777,775,305,818,33.333333333333336,-0.311,-0.496,0.811
146388,1755603109295,18.04,-30.86,-5.29,776,775,777,406,824,34.48275862068966,-0.307,-0.494,0.817
146418,1755603109325,18.08,-30.86,-5.29,778,787,773,432,833,33.333333333333336,-0.304,-0.494,0.82
146448,1755603109355,18.07,-30.9,-5.32,777,777,767,390,826,33.333333333333336,-0.304,-0.492,0.816
146508,1755603109414,18.11,-31.03,-5.4,765,783,769,314,825,33.333333333333336,-0.303,-0.491,0.817
146537,1755603109443,18.09,-31.05,-5.44,771,784,776,418,825,34.48275862068966,-0.307,-0.496,0.818
146567,1755603109473,18.09,-31.09,-5.45,774,776,775,414,831,33.333333333333336,-0.308,-0.499,0.813
146596,1755603109503,18.11,-31.12,-5.42,774,776,771,324,822,34.48275862068966,-0.309,-0.5,0.814
146626,1755603109532,18.1,-31.09,-5.4,774,779,772,316,819,33.333333333333336,-0.307,-0.497,0.814
146656,1755603109562,18.08,-31.08,-5.42,766,775,773,382,824,33.333333333333336,-0.306,-0.497,0.813
146685,1755603109591,18.1,-31.09,-5.41,769,784,779,438,826,34.48275862068966,-0.308,-0.497,0.814
146715,1755603109621,18.12,-31.05,-5.4,769,788,772,409,835,33.333333333333336,-0.307,-0.495,0.816
146744,1755603109650,18.13,-31.04,-5.42,771,781,778,316,826,34.48275862068966,-0.307,-0.498,0.817
146774,1755603109680,18.16,-31.03,-5.42,774,785,771,346,821,33.333333333333336,-0.306,-0.499,0.812
146833,1755603109739,18.14,-31.03,-5.42,773,783,779,425,822,33.333333333333336,-0.31,-0.501,0.816
146862,1755603109768,18.15,-31.02,-5.41,772,780,771,327,820,34.48275862068966,-0.311,-0.5,0.815
146922,1755603109828,18.13,-30.98,-5.39,773,786,771,400,829,33.333333333333336,-0.31,-0.494,0.812
146951,1755603109858,18.08,-30.96,-5.39,771,772,775,444,819,34.48275862068966,-0.309,-0.495,0.814
146972,1755603109878,18.07,-30.97,-5.39,775,772,773,376,827,47.61904761904762,-0.309,-0.496,0.815
147031,1755603109937,18.07,-30.97,-5.34,773,772,772,381,826,33.333333333333336,-0.308,-0.497,0.814
147060,1755603109967,18.02,-31.0,-5.35,769,786,779,297,835,34.48275862068966,-0.308,-0.495,0.812
147090,1755603109996,17.98,-31.03,-5.35,776,781,773,345,828,33.333333333333336,-0.311,-0.497,0.816
147120,1755603110026,18.01,-30.98,-5.31,772,786,769,435,827,33.333333333333336,-0.31,-0.498,0.818
147150,1755603110056,18.06,-30.96,-5.28,767,781,773,409,830,33.333333333333336,-0.305,-0.495,0.815
147179,1755603110085,18.05,-31.0,-5.31,776,773,774,318,827,34.48275862068966,-0.302,-0.491,0.816
147209,1755603110115,18.03,-31.03,-5.39,772,780,766,315,832,33.333333333333336,-0.302,-0.492,0.817
147238,1755603110145,18.04,-31.03,-5.43,773,782,775,396,825,34.48275862068966,-0.308,-0.496,0.818
147268,1755603110174,18.07,-31.02,-5.42,773,781,773,452,833,33.333333333333336,-0.311,-0.499,0.816
147297,1755603110203,18.11,-31.05,-5.4,768,776,771,396,830,34.48275862068966,-0.311,-0.498,0.814
