timestamp_ms,recv_timestamp_ms,pitch,roll,yaw,flex1,flex2,flex3,flex4,flex5,sampling_hz,accel_x,accel_y,accel_z
189884,1755607059522,55.37,-78.08,-58.69,791,775,780,342,878,34.48275862068966,-0.831,-0.542,0.122
189914,1755607059524,55.38,-78.03,-58.7,790,774,774,381,877,33.333333333333336,-0.83,-0.542,0.122
189943,1755607059526,55.42,-78.04,-58.7,797,768,779,406,873,34.48275862068966,-0.832,-0.541,0.122
189973,1755607059528,55.36,-78.0,-58.7,793,776,774,369,881,33.333333333333336,-0.832,-0.541,0.12
190002,1755607059530,55.41,-77.99,-58.71,791,772,779,339,884,34.48275862068966,-0.833,-0.542,0.118
190032,1755607059532,55.42,-78.03,-58.72,790,766,778,377,877,33.333333333333336,-0.832,-0.542,0.119
190062,1755607059534,55.42,-77.98,-58.7,793,777,779,409,874,33.333333333333336,-0.833,-0.544,0.122
190091,1755607059536,55.4,-77.94,-58.69,794,772,780,390,879,34.48275862068966,-0.831,-0.544,0.121
190121,1755607059538,55.46,-77.92,-58.68,792,779,778,307,881,33.333333333333336,-0.831,-0.544,0.122
190150,1755607059540,55.46,-77.85,-58.65,788,766,776,350,877,34.48275862068966,-0.832,-0.542,0.123
190180,1755607059542,55.49,-77.8,-58.63,792,768,777,404,876,33.333333333333336,-0.833,-0.54,0.123
190210,1755607059544,55.54,-77.75,-58.61,794,777,774,411,878,33.333333333333336,-0.833,-0.54,0.123
190239,1755607059546,55.58,-77.73,-58.61,793,780,780,347,878,34.48275862068966,-0.832,-0.541,0.122
190269,1755607059548,55.58,-77.7,-58.61,794,773,779,347,878,33.333333333333336,-0.833,-0.541,0.121
190299,1755607059550,55.55,-77.69,-58.58,792,775,780,391,876,33.333333333333336,-0.833,-0.54,0.12
190328,1755607059552,55.53,-77.73,-58.58,793,773,775,418,877,34.48275862068966,-0.832,-0.54,0.121
190358,1755607059554,55.47,-77.76,-58.57,790,775,781,380,878,33.333333333333336,-0.833,-0.54,0.12
190387,1755607059556,55.45,-77.74,-58.56,788,778,775,337,884,34.48275862068966,-0.834,-0.539,0.121
190417,1755607059558,55.43,-77.74,-58.56,788,774,777,315,880,33.333333333333336,-0.833,-0.54,0.12
190446,1755607059561,55.47,-77.79,-58.56,794,777,777,392,886,34.48275862068966,-0.833,-0.54,0.121
190476,1755607059563,55.46,-77.77,-58.56,786,768,775,407,869,33.333333333333336,-0.834,-0.54,0.122
190505,1755607059565,55.46,-77.76,-58.55,792,777,774,357,880,34.48275862068966,-0.834,-0.541,0.122
190535,1755607059566,55.44,-77.74,-58.53,789,768,778,347,873,33.333333333333336,-0.833,-0.54,0.122
190555,1755607059568,55.43,-77.72,-58.53,793,777,778,388,875,50.0,-0.833,-0.539,0.122
190584,1755607059571,55.41,-77.7,-58.53,792,777,777,370,881,34.48275862068966,-0.833,-0.538,0.121
190614,1755607059573,55.42,-77.73,-58.54,790,772,781,386,878,33.333333333333336,-0.834,-0.537,0.121
190643,1755607059575,55.41,-77.7,-58.54,792,772,774,405,878,34.48275862068966,-0.834,-0.537,0.123
190673,1755607059577,55.4,-77.7,-58.56,793,775,777,368,872,33.333333333333336,-0.833,-0.538,0.123
190733,1755607059581,55.38,-77.7,-58.55,791,777,774,361,875,33.333333333333336,-0.831,-0.54,0.122
190762,1755607059583,55.4,-77.74,-58.57,788,773,780,408,890,34.48275862068966,-0.833,-0.539,0.123
190792,1755607059584,55.42,-77.7,-58.58,790,774,777,363,883,33.333333333333336,-0.834,-0.538,0.123
190821,1755607059587,55.38,-77.68,-58.59,792,766,781,327,876,34.48275862068966,-0.833,-0.539,0.121
190851,1755607059588,55.44,-77.74,-58.61,790,775,778,336,878,33.333333333333336,-0.833,-0.539,0.123
190880,1755607059590,55.47,-77.76,-58.16,795,768,772,400,877,34.48275862068966,-0.833,-0.538,0.127
190910,1755607059593,55.48,-77.73,-58.17,794,773,781,399,877,33.333333333333336,-0.835,-0.539,0.126
190939,1755607059595,55.53,-77.74,-58.19,790,770,774,372,882,34.48275862068966,-0.833,-0.539,0.125
190969,1755607059596,55.59,-77.72,-58.21,794,769,781,349,879,33.333333333333336,-0.833,-0.539,0.123
190998,1755607059599,55.62,-77.68,-58.22,788,776,779,386,888,34.48275862068966,-0.833,-0.541,0.12
191028,1755607059600,55.69,-77.73,-58.26,791,770,779,421,883,33.333333333333336,-0.832,-0.541,0.117
191058,1755607059602,55.78,-77.86,-58.3,791,772,781,392,878,33.333333333333336,-0.832,-0.54,0.119
191088,1755607059604,55.83,-77.86,-58.33,794,779,777,337,884,33.333333333333336,-0.834,-0.539,0.124
191117,1755607059606,55.75,-77.76,-58.33,790,779,778,352,880,34.48275862068966,-0.834,-0.539,0.123
191147,1755607059608,55.83,-77.79,-58.37,793,768,775,410,878,33.333333333333336,-0.834,-0.541,0.119
191177,1755607059610,55.83,-77.81,-58.38,792,776,785,404,874,33.333333333333336,-0.833,-0.543,0.117
191206,1755607059613,55.75,-77.79,-58.37,793,772,781,361,874,34.48275862068966,-0.832,-0.544,0.116
191236,1755607059615,55.71,-77.76,-58.35,786,776,781,343,876,33.333333333333336,-0.83,-0.544,0.115
191266,1755607059617,55.75,-77.77,-58.34,795,775,781,366,878,33.333333333333336,-0.829,-0.543,0.116
191295,1755607059619,55.75,-77.8,-58.35,790,779,777,401,879,34.48275862068966,-0.83,-0.542,0.117
191325,1755607059621,55.71,-77.77,-58.36,790,777,779,391,878,33.333333333333336,-0.83,-0.541,0.119
191354,1755607059623,55.73,-77.78,-58.39,789,776,787,344,878,34.48275862068966,-0.834,-0.542,0.118
191384,1755607059625,55.75,-77.77,-58.39,790,774,779,357,882,33.333333333333336,-0.835,-0.543,0.118
191413,1755607059627,55.68,-77.76,-58.39,793,773,775,404,880,34.48275862068966,-0.833,-0.543,0.117
191443,1755607059654,55.68,-77.76,-58.39,793,775,779,410,877,33.333333333333336,-0.832,-0.544,0.117
191473,1755607059684,55.7,-77.8,-58.4,790,773,776,325,875,33.333333333333336,-0.832,-0.544,0.116
191503,1755607059714,55.66,-77.83,-58.39,790,767,777,311,875,33.333333333333336,-0.834,-0.545,0.116
191553,1755607059763,55.62,-77.86,-58.38,794,774,779,343,880,34.48275862068966,-0.832,-0.542,0.119
191583,1755607059793,55.62,-77.83,-58.39,790,769,778,383,880,33.333333333333336,-0.833,-0.543,0.119
191613,1755607059823,55.58,-77.81,-58.38,789,777,782,426,877,33.333333333333336,-0.832,-0.544,0.117
191642,1755607059852,55.59,-77.83,-58.37,798,779,779,412,877,34.48275862068966,-0.832,-0.544,0.116
191672,1755607059882,55.53,-77.84,-58.36,790,769,775,356,875,33.333333333333336,-0.831,-0.543,0.117
191701,1755607059911,55.55,-77.79,-58.34,794,773,775,348,877,34.48275862068966,-0.832,-0.543,0.119
191731,1755607059941,55.51,-77.78,-58.34,793,779,778,396,876,33.333333333333336,-0.831,-0.541,0.119
191760,1755607059970,55.5,-77.78,-58.34,792,776,780,401,874,34.48275862068966,-0.832,-0.54,0.119
191790,1755607060000,55.47,-77.77,-58.34,788,768,781,371,876,33.333333333333336,-0.833,-0.54,0.121
191820,1755607060030,55.49,-77.76,-58.36,793,776,779,353,879,33.333333333333336,-0.832,-0.541,0.119
191849,1755607060060,55.5,-77.77,-58.36,790,773,777,369,882,34.48275862068966,-0.832,-0.542,0.12
191869,1755607060080,55.46,-77.75,-58.35,794,777,781,339,883,50.0,-0.832,-0.543,0.122
191899,1755607060109,55.46,-77.71,-58.34,791,774,780,390,877,33.333333333333336,-0.831,-0.543,0.122
191928,1755607060138,55.51,-77.7,-58.34,792,777,779,406,879,34.48275862068966,-0.832,-0.542,0.122
191958,1755607060168,55.49,-77.72,-58.34,793,778,781,377,880,33.333333333333336,-0.831,-0.54,0.121
191987,1755607060198,55.46,-77.71,-58.33,794,779,777,331,880,34.48275862068966,-0.832,-0.539,0.123
192017,1755607060227,55.43,-77.65,-58.32,794,773,778,363,875,33.333333333333336,-0.831,-0.539,0.124
192047,1755607060257,55.41,-77.62,-58.31,794,775,779,413,877,33.333333333333336,-0.832,-0.542,0.122
192076,1755607060287,55.45,-77.69,-58.31,797,767,777,396,881,34.48275862068966,-0.832,-0.541,0.12
192106,1755607060316,55.43,-77.71,-58.32,789,779,778,372,878,33.333333333333336,-0.831,-0.54,0.122
192136,1755607060346,55.42,-77.67,-58.31,790,769,774,327,878,33.333333333333336,-0.832,-0.541,0.124
192165,1755607060376,55.46,-77.63,-58.32,794,778,777,372,877,34.48275862068966,-0.831,-0.541,0.122
192195,1755607060405,55.51,-77.65,-58.33,794,776,784,406,877,33.333333333333336,-0.832,-0.541,0.122
192225,1755607060435,55.49,-77.65,-58.34,792,774,774,404,880,33.333333333333336,-0.832,-0.541,0.123
192254,1755607060464,55.51,-77.63,-58.34,793,774,783,351,870,34.48275862068966,-0.832,-0.54,0.122
192284,1755607060494,55.51,-77.63,-58.34,788,773,777,349,881,33.333333333333336,-0.831,-0.54,0.122
192314,1755607060524,55.52,-77.63,-58.34,790,768,777,404,870,33.333333333333336,-0.832,-0.54,0.123
192343,1755607060554,55.48,-77.64,-58.35,789,772,779,424,881,34.48275862068966,-0.833,-0.541,0.121
192373,1755607060583,55.53,-77.64,-58.35,788,776,780,362,879,33.333333333333336,-0.832,-0.541,0.122
192403,1755607060613,55.5,-77.6,-58.35,794,774,774,349,877,33.333333333333336,-0.831,-0.54,0.123
192432,1755607060643,55.51,-77.59,-58.36,792,772,779,376,875,34.48275862068966,-0.832,-0.54,0.122
192453,1755607060663,55.52,-77.6,-58.37,793,774,777,352,877,47.61904761904762,-0.831,-0.541,0.12
192482,1755607060692,55.55,-77.59,-58.37,786,777,782,380,874,34.48275862068966,-0.832,-0.541,0.12
192512,1755607060722,55.52,-77.56,-58.38,791,772,783,410,878,33.333333333333336,-0.831,-0.542,0.12
192541,1755607060751,55.56,-77.58,-58.38,794,777,776,400,884,34.48275862068966,-0.832,-0.543,0.12
192571,1755607060781,55.54,-77.61,-58.39,792,775,772,350,876,33.333333333333336,-0.831,-0.541,0.12
192600,1755607060811,55.56,-77.6,-58.39,791,773,782,369,874,34.48275862068966,-0.834,-0.54,0.123
192630,1755607060840,55.54,-77.57,-58.4,789,780,778,401,879,33.333333333333336,-0.832,-0.54,0.122
192660,1755607060870,55.6,-77.63,-58.43,791,779,778,412,878,33.333333333333336,-0.832,-0.542,0.12
192690,1755607060900,55.55,-77.66,-58.43,793,773,776,369,873,33.333333333333336,-0.83,-0.543,0.12
192719,1755607060930,55.58,-77.71,-58.45,791,778,780,350,876,34.48275862068966,-0.833,-0.543,0.121
192749,1755607060959,55.61,-77.69,-58.45,790,774,781,389,874,33.333333333333336,-0.833,-0.541,0.123
192808,1755607061018,55.62,-77.67,-58.45,797,769,773,406,883,33.333333333333336,-0.832,-0.542,0.12
192838,1755607061048,55.62,-77.69,-58.45,792,773,777,347,877,33.333333333333336,-0.834,-0.542,0.121
192867,1755607061077,55.66,-77.65,-58.45,794,776,780,351,877,34.48275862068966,-0.832,-0.541,0.121
192896,1755607061107,55.66,-77.64,-58.45,790,779,778,402,877,34.48275862068966,-0.832,-0.543,0.121
192926,1755607061136,55.59,-77.59,-58.44,794,774,778,408,876,33.333333333333336,-0.832,-0.543,0.121
192955,1755607061166,55.64,-77.61,-58.46,792,773,780,348,885,34.48275862068966,-0.832,-0.542,0.119
192985,1755607061195,55.73,-77.64,-58.48,791,778,778,354,875,33.333333333333336,-0.832,-0.542,0.12
193015,1755607061225,55.66,-77.64,-58.48,791,775,778,398,880,33.333333333333336,-0.832,-0.543,0.12
193044,1755607061254,55.66,-77.66,-58.49,793,772,773,410,879,34.48275862068966,-0.833,-0.543,0.12
193074,1755607061284,55.73,-77.66,-58.5,795,779,773,383,876,33.333333333333336,-0.833,-0.542,0.121
193103,1755607061313,55.74,-77.65,-58.5,793,773,777,350,877,34.48275862068966,-0.832,-0.543,0.121
193162,1755607061373,55.71,-77.64,-58.5,792,773,777,405,878,34.48275862068966,-0.832,-0.544,0.119
193192,1755607061402,55.74,-77.64,-58.5,790,779,779,393,878,33.333333333333336,-0.832,-0.544,0.119
193222,1755607061432,55.7,-77.63,-58.49,794,776,778,345,878,33.333333333333336,-0.831,-0.544,0.119
193251,1755607061462,55.73,-77.66,-58.5,790,773,774,351,879,34.48275862068966,-0.833,-0.543,0.121
193281,1755607061491,55.73,-77.63,-58.5,794,779,773,377,876,33.333333333333336,-0.832,-0.542,0.123
193311,1755607061521,55.75,-77.58,-58.49,795,777,780,404,879,33.333333333333336,-0.831,-0.543,0.123
193340,1755607061550,55.76,-77.57,-58.51,789,779,782,369,881,34.48275862068966,-0.83,-0.542,0.12
193370,1755607061580,55.82,-77.62,-58.53,792,774,776,332,879,33.333333333333336,-0.833,-0.542,0.118
193399,1755607061610,55.79,-77.62,-58.53,794,777,779,360,876,34.48275862068966,-0.832,-0.54,0.117
193429,1755607061640,55.82,-77.67,-58.55,791,769,775,407,878,33.333333333333336,-0.833,-0.541,0.117
193459,1755607061669,55.75,-77.68,-58.55,793,780,778,399,869,33.333333333333336,-0.833,-0.542,0.118
193489,1755607061699,55.72,-77.73,-58.55,793,774,780,337,879,33.333333333333336,-0.833,-0.544,0.119
193518,1755607061729,55.7,-77.76,-58.54,794,774,778,332,879,34.48275862068966,-0.833,-0.545,0.118
193548,1755607061758,55.63,-77.74,-58.52,793,779,780,390,876,33.333333333333336,-0.833,-0.545,0.117
193577,1755607061787,55.48,-77.77,-58.51,793,778,774,409,870,34.48275862068966,-0.83,-0.543,0.113
193607,1755607061817,55.46,-77.83,-58.52,791,772,780,377,882,33.333333333333336,-0.831,-0.543,0.116
193636,1755607061847,55.43,-77.81,-58.51,794,777,779,335,876,34.48275862068966,-0.831,-0.543,0.12
193666,1755607061876,55.41,-77.72,-58.49,793,775,777,366,878,33.333333333333336,-0.832,-0.544,0.122
193695,1755607061906,55.4,-77.68,-58.49,789,770,781,374,881,34.48275862068966,-0.831,-0.545,0.121
193725,1755607061935,55.45,-77.68,-58.47,791,776,778,386,879,33.333333333333336,-0.83,-0.544,0.122
193755,1755607061965,55.4,-77.64,-58.45,792,774,777,350,877,33.333333333333336,-0.831,-0.542,0.122
193814,1755607062024,55.44,-77.63,-58.46,789,775,781,388,883,33.333333333333336,-0.832,-0.539,0.126
193843,1755607062053,55.47,-77.62,-58.47,791,768,778,394,879,34.48275862068966,-0.833,-0.54,0.126
193873,1755607062083,55.46,-77.62,-58.47,792,775,782,358,878,33.333333333333336,-0.831,-0.54,0.125
193902,1755607062112,55.44,-77.64,-58.48,793,777,779,326,877,34.48275862068966,-0.831,-0.539,0.125
193932,1755607062142,55.46,-77.62,-58.48,795,773,773,368,876,33.333333333333336,-0.833,-0.54,0.126
193991,1755607062201,55.49,-77.62,-58.5,789,774,779,396,880,33.333333333333336,-0.831,-0.541,0.123
194020,1755607062230,55.48,-77.62,-58.5,792,777,782,346,876,34.48275862068966,-0.831,-0.542,0.123
194050,1755607062260,55.47,-77.6,-58.5,790,768,775,347,878,33.333333333333336,-0.83,-0.541,0.124
194079,1755607062289,55.52,-77.58,-58.5,792,775,780,415,877,34.48275862068966,-0.83,-0.542,0.124
194109,1755607062319,55.51,-77.56,-58.51,793,777,778,403,888,33.333333333333336,-0.831,-0.541,0.123
194138,1755607062349,55.47,-77.58,-58.49,791,777,779,341,875,34.48275862068966,-0.832,-0.542,0.123
194168,1755607062378,55.46,-77.56,-58.48,791,774,780,355,880,33.333333333333336,-0.832,-0.542,0.124
194198,1755607062408,55.38,-77.51,-58.46,791,773,778,408,873,33.333333333333336,-0.832,-0.541,0.125
194228,1755607062438,55.3,-77.48,-58.46,792,770,778,431,875,33.333333333333336,-0.83,-0.541,0.124
194257,1755607062468,55.38,-77.45,-58.47,791,774,783,356,887,34.48275862068966,-0.831,-0.542,0.125
194287,1755607062497,55.42,-77.42,-58.47,790,775,776,342,877,33.333333333333336,-0.831,-0.542,0.126
194317,1755607062527,55.36,-77.37,-58.45,790,769,782,372,878,33.333333333333336,-0.831,-0.542,0.125
194346,1755607062557,55.41,-77.38,-58.46,794,770,773,405,879,34.48275862068966,-0.832,-0.541,0.124
194376,1755607062586,55.45,-77.39,-58.47,792,767,775,411,876,33.333333333333336,-0.831,-0.54,0.126
194406,1755607062616,55.45,-77.38,-58.46,789,776,780,314,875,33.333333333333336,-0.831,-0.54,0.127
194435,1755607062646,55.43,-77.34,-58.45,789,768,781,330,876,34.48275862068966,-0.832,-0.54,0.121
194465,1755607062675,55.43,-77.35,-58.46,791,776,773,368,874,33.333333333333336,-0.833,-0.539,0.122
194495,1755607062705,55.41,-77.37,-58.46,788,774,780,406,876,33.333333333333336,-0.831,-0.539,0.123
194525,1755607062735,55.38,-77.36,-58.45,790,770,777,387,874,33.333333333333336,-0.832,-0.54,0.122
194554,1755607062764,55.37,-77.36,-58.45,792,777,779,355,877,34.48275862068966,-0.832,-0.541,0.123
194584,1755607062794,55.38,-77.36,-58.45,792,775,776,356,877,33.333333333333336,-0.831,-0.541,0.126
194613,1755607062823,55.38,-77.32,-58.44,787,769,780,421,878,34.48275862068966,-0.832,-0.54,0.126
194643,1755607062853,55.41,-77.32,-58.45,790,777,778,424,880,33.333333333333336,-0.831,-0.539,0.126
194672,1755607062882,55.4,-77.3,-58.45,788,773,780,363,879,34.48275862068966,-0.831,-0.539,0.127
194702,1755607062912,55.37,-77.3,-58.46,790,774,782,335,873,33.333333333333336,-0.832,-0.539,0.126
194732,1755607062942,55.38,-77.29,-58.45,794,768,775,375,879,33.333333333333336,-0.833,-0.539,0.127
194761,1755607062971,55.41,-77.31,-58.47,793,777,784,391,878,34.48275862068966,-0.832,-0.539,0.128
194791,1755607063001,55.4,-77.28,-58.48,792,777,780,337,878,33.333333333333336,-0.832,-0.541,0.129
194820,1755607063030,55.43,-77.26,-58.48,788,779,779,333,878,34.48275862068966,-0.831,-0.541,0.128
194850,1755607063060,55.44,-77.26,-58.47,789,776,781,346,879,33.333333333333336,-0.832,-0.54,0.127
194879,1755607063089,55.44,-77.22,-58.47,789,774,782,398,880,34.48275862068966,-0.833,-0.54,0.126
194909,1755607063119,55.46,-77.24,-58.47,795,774,773,412,879,33.333333333333336,-0.833,-0.541,0.127
194938,1755607063148,55.44,-77.67,-58.47,792,778,778,351,882,34.48275862068966,-0.832,-0.54,0.126
194968,1755607063179,55.39,-77.67,-58.46,789,777,777,346,875,33.333333333333336,-0.834,-0.54,0.128
194988,1755607063198,55.4,-77.64,-58.45,794,778,778,380,876,50.0,-0.833,-0.539,0.129
195018,1755607063228,55.43,-77.59,-58.46,790,774,776,353,880,33.333333333333336,-0.832,-0.538,0.132
195047,1755607063258,55.46,-77.55,-58.47,793,781,777,397,873,34.48275862068966,-0.832,-0.539,0.131
195107,1755607063317,55.43,-77.55,-58.47,795,774,775,392,885,33.333333333333336,-0.832,-0.542,0.126
195136,1755607063346,55.48,-77.54,-58.48,795,775,779,344,880,34.48275862068966,-0.831,-0.54,0.128
195166,1755607063376,55.46,-77.51,-58.49,793,780,780,379,880,33.333333333333336,-0.832,-0.539,0.129
195195,1755607063405,55.43,-77.48,-58.49,791,772,781,408,886,34.48275862068966,-0.834,-0.539,0.129
195225,1755607063435,55.46,-77.49,-58.5,785,774,778,390,874,33.333333333333336,-0.833,-0.54,0.129
195254,1755607063464,55.49,-77.48,-58.5,795,773,778,341,873,34.48275862068966,-0.832,-0.54,0.129
195284,1755607063494,55.45,-77.44,-58.5,792,768,775,336,878,33.333333333333336,-0.832,-0.54,0.129
195304,1755607063514,55.42,-77.42,-58.5,792,774,778,372,878,50.0,-0.831,-0.54,0.128
195333,1755607063543,55.0,-77.41,-58.5,790,776,780,379,880,34.48275862068966,-0.832,-0.542,0.13
195363,1755607063573,54.98,-77.36,-58.47,793,774,781,415,878,33.333333333333336,-0.832,-0.543,0.129
195392,1755607063602,55.01,-77.37,-58.46,795,774,773,413,870,34.48275862068966,-0.832,-0.541,0.127
195422,1755607063632,54.97,-77.37,-58.46,791,773,778,354,874,33.333333333333336,-0.831,-0.537,0.129
195442,1755607063652,54.96,-77.37,-58.47,792,766,775,422,885,50.0,-0.833,-0.535,0.132
195471,1755607063682,55.01,-77.36,-58.48,793,773,779,372,873,34.48275862068966,-0.833,-0.537,0.132
195501,1755607063712,55.07,-77.33,-58.49,793,777,780,369,881,33.333333333333336,-0.832,-0.538,0.131
195531,1755607063741,55.04,-77.32,-58.5,790,776,776,387,876,33.333333333333336,-0.832,-0.538,0.13
195561,1755607063771,55.08,-77.31,-58.51,791,768,775,421,884,33.333333333333336,-0.833,-0.539,0.131
195591,1755607063801,55.09,-77.27,-58.52,790,772,776,377,873,33.333333333333336,-0.831,-0.538,0.13
195650,1755607063860,55.13,-77.21,-58.53,792,777,780,345,878,33.333333333333336,-0.832,-0.539,0.13
195679,1755607063889,55.11,-77.21,-58.54,794,773,780,410,875,34.48275862068966,-0.832,-0.54,0.129
195709,1755607063919,55.13,-77.21,-58.08,797,777,782,401,877,33.333333333333336,-0.832,-0.54,0.128
195738,1755607063948,55.14,-77.16,-58.08,789,780,780,335,880,34.48275862068966,-0.833,-0.539,0.13
195768,1755607063978,55.15,-77.16,-58.1,787,775,779,297,877,33.333333333333336,-0.833,-0.54,0.129
195797,1755607064008,55.14,-77.16,-58.09,792,771,777,374,877,34.48275862068966,-0.832,-0.54,0.129
195827,1755607064037,55.12,-77.14,-58.08,795,780,774,390,877,33.333333333333336,-0.833,-0.54,0.13
195857,1755607064067,55.07,-77.09,-58.07,789,773,773,373,887,33.333333333333336,-0.833,-0.54,0.131
195886,1755607064097,55.12,-77.09,-58.08,789,767,778,339,877,34.48275862068966,-0.832,-0.54,0.13
195916,1755607064126,55.16,-77.08,-58.08,793,769,774,344,877,33.333333333333336,-0.831,-0.541,0.131
195946,1755607064156,55.14,-77.07,-58.09,792,774,778,416,875,33.333333333333336,-0.832,-0.54,0.13
195975,1755607064185,55.14,-77.04,-58.08,789,777,781,358,877,34.48275862068966,-0.831,-0.54,0.13
196005,1755607064215,55.15,-77.04,-58.09,792,775,778,328,878,33.333333333333336,-0.831,-0.54,0.131
196034,1755607064244,55.12,-76.99,-58.08,791,778,781,340,880,34.48275862068966,-0.831,-0.54,0.131
196064,1755607064274,55.13,-77.0,-58.09,790,776,781,353,878,33.333333333333336,-0.83,-0.54,0.13
196094,1755607064304,55.14,-76.95,-58.08,786,769,774,389,872,33.333333333333336,-0.831,-0.539,0.131
196123,1755607064333,55.09,-76.9,-58.07,786,771,777,357,875,34.48275862068966,-0.83,-0.538,0.128
196153,1755607064363,55.06,-76.98,-58.09,788,771,777,335,882,33.333333333333336,-0.829,-0.538,0.128
196182,1755607064392,54.97,-76.95,-58.08,793,776,780,367,872,34.48275862068966,-0.832,-0.539,0.131
196212,1755607064422,54.91,-76.84,-58.04,792,777,778,400,876,33.333333333333336,-0.833,-0.541,0.132
196241,1755607064451,54.95,-76.86,-58.06,792,776,779,397,869,34.48275862068966,-0.83,-0.54,0.133
196301,1755607064511,54.74,-76.69,-57.99,792,771,779,333,878,33.333333333333336,-0.831,-0.54,0.135
196330,1755607064540,54.81,-76.73,-58.02,793,773,780,392,877,34.48275862068966,-0.833,-0.54,0.136
196360,1755607064570,54.82,-76.69,-58.02,793,780,783,417,876,33.333333333333336,-0.832,-0.538,0.137
196389,1755607064599,54.79,-76.64,-58.02,790,775,785,351,875,34.48275862068966,-0.831,-0.537,0.14
196419,1755607064629,54.85,-76.63,-58.04,793,774,779,339,877,33.333333333333336,-0.833,-0.538,0.141
196448,1755607064659,54.93,-76.6,-58.05,787,777,779,391,876,34.48275862068966,-0.832,-0.538,0.14
196508,1755607064718,54.92,-76.53,-58.05,790,779,777,374,875,33.333333333333336,-0.833,-0.538,0.139
196537,1755607064748,54.99,-76.55,-58.07,791,779,778,336,880,34.48275862068966,-0.833,-0.538,0.139
196567,1755607064777,55.01,-76.58,-58.09,790,776,781,365,884,33.333333333333336,-0.832,-0.538,0.14
196626,1755607064836,55.04,-76.48,-58.09,788,770,782,418,879,34.48275862068966,-0.832,-0.539,0.141
196656,1755607064866,55.13,-76.51,-58.13,793,779,781,351,873,33.333333333333336,-0.832,-0.539,0.139
196685,1755607064895,55.12,-76.5,-58.13,792,774,777,332,874,34.48275862068966,-0.831,-0.54,0.137
196715,1755607064925,55.11,-76.5,-58.13,793,778,774,381,872,33.333333333333336,-0.832,-0.541,0.136
196744,1755607064954,55.19,-76.48,-58.13,790,773,774,410,876,34.48275862068966,-0.833,-0.539,0.137
196774,1755607064984,55.21,-76.44,-58.15,790,774,778,401,877,33.333333333333336,-0.831,-0.539,0.136
196803,1755607065014,55.25,-76.46,-58.16,790,777,779,347,881,34.48275862068966,-0.833,-0.54,0.136
196833,1755607065043,55.22,-76.45,-58.17,786,773,781,352,880,33.333333333333336,-0.832,-0.539,0.134
196863,1755607065073,55.28,-76.46,-58.18,788,776,782,400,876,33.333333333333336,-0.832,-0.539,0.134
196892,1755607065103,55.3,-76.49,-58.19,789,775,781,412,876,34.48275862068966,-0.831,-0.54,0.135
196922,1755607065132,55.28,-76.48,-58.18,788,778,775,366,879,33.333333333333336,-0.832,-0.54,0.135
196951,1755607065161,55.27,-76.46,-58.17,791,776,777,339,877,34.48275862068966,-0.831,-0.54,0.134
196981,1755607065191,55.32,-76.47,-58.19,787,775,782,393,880,33.333333333333336,-0.832,-0.539,0.135
197011,1755607065221,55.37,-76.45,-58.19,791,775,780,421,880,33.333333333333336,-0.832,-0.54,0.134
197040,1755607065250,55.39,-76.46,-58.21,789,777,780,370,884,34.48275862068966,-0.831,-0.539,0.134
197070,1755607065280,55.42,-76.46,-58.22,794,778,781,337,877,33.333333333333336,-0.832,-0.541,0.134
197099,1755607065309,55.43,-76.41,-58.21,787,768,777,357,879,34.48275862068966,-0.832,-0.541,0.133
197129,1755607065339,55.44,-76.41,-58.21,791,778,780,414,878,33.333333333333336,-0.832,-0.541,0.131
197159,1755607065369,55.43,-76.41,-58.21,791,778,774,414,875,33.333333333333336,-0.832,-0.541,0.131
197188,1755607065399,55.43,-76.35,-58.19,787,771,782,351,871,34.48275862068966,-0.832,-0.54,0.133
197218,1755607065428,55.42,-76.28,-58.18,794,769,776,301,878,33.333333333333336,-0.831,-0.54,0.133
197248,1755607065458,55.39,-76.29,-58.19,791,780,774,365,877,33.333333333333336,-0.831,-0.541,0.131
197277,1755607065488,55.34,-76.29,-58.17,794,774,781,407,879,34.48275862068966,-0.831,-0.54,0.131
197307,1755607065517,55.35,-76.3,-58.17,792,775,776,386,879,33.333333333333336,-0.831,-0.539,0.132
197337,1755607065547,55.34,-76.29,-58.17,792,770,781,307,879,33.333333333333336,-0.83,-0.54,0.132
197396,1755607065606,55.3,-76.31,-58.15,791,779,775,403,873,33.333333333333336,-0.83,-0.539,0.133
197425,1755607065635,55.31,-76.29,-58.15,790,776,781,411,882,34.48275862068966,-0.831,-0.539,0.133
197455,1755607065665,55.3,-76.3,-58.15,792,773,781,353,878,33.333333333333336,-0.83,-0.538,0.133
197484,1755607065694,55.28,-76.3,-58.15,792,774,779,352,880,34.48275862068966,-0.832,-0.539,0.133
197514,1755607065724,55.24,-76.28,-58.13,786,773,778,397,875,33.333333333333336,-0.832,-0.539,0.132
197543,1755607065753,55.25,-76.31,-58.14,787,771,780,424,878,34.48275862068966,-0.832,-0.54,0.133
197573,1755607065783,55.21,-76.26,-58.13,795,773,777,359,874,33.333333333333336,-0.832,-0.539,0.134
197602,1755607065813,55.18,-76.25,-58.13,790,777,780,334,872,34.48275862068966,-0.831,-0.538,0.135
197622,1755607065833,55.2,-76.26,-58.13,797,778,777,384,876,50.0,-0.832,-0.539,0.137
197652,1755607065862,55.22,-76.25,-58.13,788,775,777,342,878,33.333333333333336,-0.832,-0.538,0.138
197682,1755607065892,55.27,-76.21,-58.15,790,766,778,388,877,33.333333333333336,-0.832,-0.538,0.137
197711,1755607065921,55.28,-76.19,-58.15,788,766,778,412,875,34.48275862068966,-0.831,-0.538,0.136
197741,1755607065951,55.25,-76.21,-58.17,790,777,780,389,876,33.333333333333336,-0.832,-0.537,0.135
197770,1755607065981,55.3,-76.24,-58.19,794,776,774,360,876,34.48275862068966,-0.832,-0.538,0.137
197800,1755607066010,55.33,-76.23,-58.2,789,776,781,370,872,33.333333333333336,-0.832,-0.54,0.138
197830,1755607066040,55.31,-76.21,-58.18,791,777,779,422,876,33.333333333333336,-0.832,-0.541,0.137
197860,1755607066070,55.33,-76.21,-58.19,788,779,781,411,877,33.333333333333336,-0.832,-0.541,0.136
197889,1755607066099,55.33,-76.2,-58.19,788,767,776,365,877,34.48275862068966,-0.832,-0.537,0.136
197919,1755607066129,55.34,-76.14,-58.19,791,776,779,351,877,33.333333333333336,-0.833,-0.537,0.138
197948,1755607066158,55.33,-76.15,-58.2,790,773,781,386,876,34.48275862068966,-0.831,-0.538,0.134
197978,1755607066188,55.38,-76.19,-58.22,792,776,778,401,877,33.333333333333336,-0.831,-0.539,0.135
198007,1755607066218,55.34,-76.18,-58.21,793,776,785,384,875,34.48275862068966,-0.832,-0.539,0.136
198037,1755607066247,55.35,-76.19,-58.21,792,778,778,339,881,33.333333333333336,-0.832,-0.539,0.135
198067,1755607066277,55.34,-76.19,-58.21,793,774,779,355,875,33.333333333333336,-0.831,-0.539,0.136
198096,1755607066306,55.31,-76.22,-58.2,791,774,782,390,871,34.48275862068966,-0.831,-0.539,0.135
198126,1755607066336,55.33,-76.28,-58.21,793,771,773,405,877,33.333333333333336,-0.831,-0.539,0.135
198156,1755607066366,55.34,-76.29,-58.23,792,773,774,361,878,33.333333333333336,-0.831,-0.539,0.135
198185,1755607066396,55.33,-76.33,-58.25,790,781,774,346,870,34.48275862068966,-0.833,-0.54,0.135
198215,1755607066425,55.33,-76.34,-58.27,790,769,780,378,876,33.333333333333336,-0.831,-0.539,0.134
198245,1755607066455,55.31,-76.32,-58.27,785,774,774,420,878,33.333333333333336,-0.831,-0.539,0.137
198274,1755607066484,55.32,-76.27,-58.26,790,773,780,394,876,34.48275862068966,-0.831,-0.54,0.139
198304,1755607066514,55.36,-76.22,-58.25,788,773,775,350,876,33.333333333333336,-0.831,-0.539,0.139
198334,1755607066544,55.38,-76.19,-58.24,789,774,774,322,874,33.333333333333336,-0.831,-0.539,0.138
198363,1755607066574,55.38,-76.18,-58.25,793,771,778,403,873,34.48275862068966,-0.832,-0.539,0.135
198393,1755607066603,55.36,-76.2,-58.26,789,773,779,407,874,33.333333333333336,-0.83,-0.539,0.131
198423,1755607066633,55.37,-76.23,-58.25,791,775,779,372,875,33.333333333333336,-0.83,-0.539,0.133
198452,1755607066662,55.36,-76.25,-58.26,788,775,779,334,877,34.48275862068966,-0.832,-0.54,0.136
198482,1755607066692,55.36,-76.24,-58.25,792,774,781,381,879,33.333333333333336,-0.832,-0.539,0.135
198511,1755607066721,55.34,-76.25,-58.26,787,779,780,403,877,34.48275862068966,-0.832,-0.54,0.135
198541,1755607066751,55.35,-76.23,-58.25,791,775,780,389,872,33.333333333333336,-0.831,-0.541,0.132
198570,1755607066780,55.35,-76.22,-58.25,793,768,777,341,875,34.48275862068966,-0.832,-0.54,0.132
198600,1755607066810,55.31,-76.22,-58.25,788,778,777,360,878,33.333333333333336,-0.832,-0.539,0.132
198629,1755607066839,55.33,-76.25,-58.26,789,779,778,404,876,34.48275862068966,-0.831,-0.539,0.135
198659,1755607066869,55.34,-76.19,-58.26,791,777,778,394,876,33.333333333333336,-0.831,-0.54,0.137
