timestamp_ms,recv_timestamp_ms,pitch,roll,yaw,flex1,flex2,flex3,flex4,flex5,sampling_hz,accel_x,accel_y,accel_z
155542,1755607028361,63.94,-65.7,-49.12,782,772,782,429,874,34.48275862068966,-0.901,-0.426,0.135
155572,1755607028363,64.15,-66.12,-49.04,783,778,779,399,875,33.333333333333336,-0.903,-0.429,0.116
155799,1755607028380,64.62,-72.28,-46.22,785,770,783,336,888,50.0,-0.955,-0.385,0.139
155858,1755607028384,64.38,-72.3,-46.8,783,775,780,417,893,34.48275862068966,-0.852,-0.348,0.113
156264,1755607028413,65.92,-83.24,-56.47,802,773,782,371,884,34.48275862068966,-0.868,-0.491,-0.005
156383,1755607028421,65.4,-87.63,-56.8,783,779,783,361,876,33.333333333333336,-0.851,-0.523,-0.047
156412,1755607028423,65.03,-88.86,-56.91,784,772,780,411,879,34.48275862068966,-0.836,-0.525,-0.075
156442,1755607028424,64.33,-89.19,-56.56,788,767,780,429,886,33.333333333333336,-0.836,-0.535,-0.062
156472,1755607028427,64.7,-89.61,-56.48,786,777,781,360,887,33.333333333333336,-0.849,-0.539,-0.048
156590,1755607028435,64.92,-89.84,-55.81,786,774,775,392,890,33.333333333333336,-0.842,-0.524,-0.115
156620,1755607028437,64.54,-90.07,-55.81,783,773,777,325,888,33.333333333333336,-0.858,-0.537,-0.134
160154,1755607028576,55.21,-104.74,-57.31,800,772,781,373,888,1000.0,-0.821,-0.551,-0.147
160204,1755607028581,55.13,-104.74,-57.33,803,771,778,365,886,33.333333333333336,-0.824,-0.554,-0.141
160234,1755607028583,55.15,-104.73,-57.31,803,769,779,356,891,33.333333333333336,-0.824,-0.556,-0.14
160352,1755607028590,55.04,-104.22,-57.38,803,774,777,346,887,34.48275862068966,-0.83,-0.546,-0.127
160382,1755607028592,54.98,-104.11,-57.39,801,774,781,351,887,33.333333333333336,-0.83,-0.546,-0.131
160441,1755607028650,54.97,-103.89,-57.34,802,776,784,401,890,33.333333333333336,-0.826,-0.552,-0.131
160500,1755607028710,55.08,-103.76,-57.39,804,765,779,352,890,33.333333333333336,-0.825,-0.549,-0.127
160530,1755607028740,55.21,-103.58,-57.44,806,772,776,411,887,33.333333333333336,-0.822,-0.55,-0.127
160550,1755607028759,55.29,-103.48,-57.48,804,772,779,350,890,50.0,-0.823,-0.553,-0.128
160579,1755607028789,55.2,-103.34,-57.52,799,771,779,385,891,34.48275862068966,-0.82,-0.554,-0.137
160609,1755607028819,55.08,-103.45,-57.55,803,769,780,415,887,33.333333333333336,-0.823,-0.555,-0.136
160639,1755607028848,55.07,-103.5,-57.53,799,777,776,360,891,33.333333333333336,-0.824,-0.554,-0.126
160668,1755607028878,55.03,-103.31,-57.48,806,777,777,340,888,34.48275862068966,-0.824,-0.554,-0.12
160698,1755607028908,55.06,-103.17,-57.48,804,774,775,373,888,33.333333333333336,-0.824,-0.555,-0.122
160757,1755607028967,55.17,-103.18,-57.54,803,777,780,403,884,34.48275862068966,-0.823,-0.55,-0.126
160817,1755607029027,55.11,-102.97,-57.66,803,768,777,346,887,33.333333333333336,-0.821,-0.554,-0.128
160847,1755607029057,55.09,-103.04,-57.73,798,777,781,392,884,33.333333333333336,-0.821,-0.557,-0.13
160867,1755607029077,55.08,-103.15,-57.75,796,777,775,346,890,50.0,-0.822,-0.562,-0.129
160896,1755607029106,55.1,-103.19,-57.73,803,777,779,386,892,34.48275862068966,-0.823,-0.562,-0.124
160926,1755607029136,55.08,-103.18,-57.71,799,776,775,395,886,33.333333333333336,-0.822,-0.559,-0.121
160956,1755607029166,55.05,-103.15,-57.69,799,776,776,371,887,33.333333333333336,-0.821,-0.562,-0.122
160985,1755607029195,55.1,-103.15,-57.67,805,775,784,303,883,34.48275862068966,-0.823,-0.56,-0.122
161015,1755607029225,55.04,-103.15,-57.65,802,773,782,348,890,33.333333333333336,-0.822,-0.557,-0.12
161045,1755607029254,54.97,-103.08,-57.64,801,776,781,415,892,33.333333333333336,-0.823,-0.557,-0.118
161074,1755607029284,54.96,-103.03,-57.62,802,772,780,404,884,34.48275862068966,-0.825,-0.558,-0.117
161104,1755607029313,54.96,-102.92,-57.57,804,774,783,350,889,33.333333333333336,-0.824,-0.558,-0.115
161133,1755607029344,54.99,-102.73,-57.49,802,779,778,357,891,34.48275862068966,-0.824,-0.558,-0.115
161153,1755607029363,54.99,-102.61,-57.45,802,775,782,374,893,50.0,-0.824,-0.557,-0.118
161183,1755607029393,54.92,-102.56,-57.43,801,778,780,353,888,33.333333333333336,-0.825,-0.554,-0.122
161212,1755607029423,54.85,-102.55,-57.4,801,774,775,403,890,34.48275862068966,-0.824,-0.554,-0.121
161233,1755607029443,54.82,-102.54,-57.39,802,767,782,357,886,47.61904761904762,-0.825,-0.554,-0.117
161262,1755607029472,54.74,-102.43,-57.37,802,780,775,398,884,34.48275862068966,-0.824,-0.553,-0.114
161292,1755607029502,54.66,-102.32,-57.3,802,781,779,410,886,33.333333333333336,-0.824,-0.553,-0.116
161322,1755607029532,54.49,-102.19,-57.23,803,774,775,353,894,33.333333333333336,-0.82,-0.55,-0.115
161352,1755607029561,54.44,-102.12,-57.18,797,774,780,335,891,33.333333333333336,-0.821,-0.553,-0.109
161411,1755607029621,54.34,-101.82,-57.07,798,778,780,422,888,33.333333333333336,-0.82,-0.554,-0.112
161440,1755607029650,54.29,-101.75,-57.01,803,784,774,391,887,34.48275862068966,-0.822,-0.556,-0.112
161470,1755607029680,54.36,-101.76,-56.96,803,774,779,347,886,33.333333333333336,-0.823,-0.552,-0.109
161529,1755607029739,54.46,-101.76,-56.92,802,774,779,389,888,34.48275862068966,-0.828,-0.547,-0.103
161559,1755607029769,54.48,-101.84,-56.92,799,766,780,402,887,33.333333333333336,-0.829,-0.546,-0.107
161588,1755607029798,54.43,-101.9,-56.94,801,779,782,362,880,34.48275862068966,-0.825,-0.548,-0.11
161618,1755607029827,54.38,-101.92,-56.94,795,775,777,348,891,33.333333333333336,-0.828,-0.549,-0.11
161647,1755607029857,54.32,-101.9,-56.94,800,776,774,396,890,34.48275862068966,-0.827,-0.55,-0.108
161677,1755607029886,54.3,-101.89,-56.93,802,772,779,409,887,33.333333333333336,-0.828,-0.55,-0.107
161706,1755607029916,54.25,-101.89,-56.91,802,778,782,393,889,34.48275862068966,-0.83,-0.55,-0.104
161736,1755607029945,54.19,-101.91,-56.9,793,773,782,335,890,33.333333333333336,-0.829,-0.548,-0.099
161765,1755607029975,54.1,-101.85,-56.9,801,780,776,346,892,34.48275862068966,-0.83,-0.545,-0.098
161795,1755607030005,54.09,-101.78,-56.91,798,778,779,412,890,33.333333333333336,-0.832,-0.545,-0.098
161825,1755607030035,53.98,-101.79,-56.94,803,776,781,392,887,33.333333333333336,-0.831,-0.544,-0.099
161854,1755607030064,53.91,-101.78,-57.0,803,778,784,362,887,34.48275862068966,-0.831,-0.546,-0.096
161884,1755607030095,53.8,-101.63,-56.97,801,770,782,349,888,33.333333333333336,-0.835,-0.546,-0.094
161905,1755607030114,53.76,-101.55,-56.96,803,778,779,392,884,47.61904761904762,-0.835,-0.546,-0.093
161934,1755607030144,53.81,-101.58,-56.98,796,778,779,370,891,34.48275862068966,-0.833,-0.546,-0.09
161964,1755607030174,53.8,-101.5,-56.97,798,772,782,411,888,33.333333333333336,-0.833,-0.546,-0.088
161994,1755607030204,53.7,-101.35,-56.97,805,778,779,414,887,33.333333333333336,-0.832,-0.546,-0.09
162023,1755607030234,53.69,-101.29,-56.98,803,772,782,386,892,34.48275862068966,-0.832,-0.547,-0.093
162053,1755607030263,53.74,-101.35,-56.99,798,771,775,334,891,33.333333333333336,-0.833,-0.548,-0.09
162083,1755607030293,53.65,-101.29,-56.97,798,769,783,338,887,33.333333333333336,-0.832,-0.547,-0.086
162112,1755607030322,53.57,-101.2,-56.98,803,778,778,407,892,34.48275862068966,-0.835,-0.548,-0.086
162142,1755607030352,53.64,-101.18,-57.0,798,772,779,424,884,33.333333333333336,-0.834,-0.548,-0.088
162172,1755607030382,53.72,-101.19,-57.0,798,774,778,344,889,33.333333333333336,-0.833,-0.547,-0.083
162202,1755607030411,53.62,-101.1,-57.0,800,779,780,315,887,33.333333333333336,-0.834,-0.545,-0.081
162231,1755607030441,53.56,-101.02,-56.99,800,774,776,366,886,34.48275862068966,-0.835,-0.546,-0.078
162261,1755607030471,53.62,-100.99,-57.01,802,778,781,405,892,33.333333333333336,-0.833,-0.546,-0.077
162291,1755607030500,53.71,-100.92,-56.99,803,775,783,386,886,33.333333333333336,-0.835,-0.547,-0.071
162320,1755607030530,53.64,-100.77,-56.97,797,771,780,338,887,34.48275862068966,-0.834,-0.547,-0.072
162350,1755607030560,53.63,-100.64,-56.96,802,769,780,342,888,33.333333333333336,-0.835,-0.546,-0.075
162379,1755607030589,53.67,-100.53,-56.96,797,774,782,395,886,34.48275862068966,-0.834,-0.547,-0.074
162409,1755607030619,53.79,-100.49,-56.97,799,779,779,394,890,33.333333333333336,-0.834,-0.547,-0.071
162438,1755607030648,53.8,-100.38,-56.97,799,775,774,350,889,34.48275862068966,-0.835,-0.547,-0.073
162468,1755607030678,53.75,-100.31,-56.97,800,777,777,343,884,33.333333333333336,-0.835,-0.547,-0.073
162498,1755607030707,53.81,-100.25,-56.96,802,776,782,377,888,33.333333333333336,-0.835,-0.547,-0.069
162527,1755607030737,53.79,-100.08,-56.95,795,774,780,419,888,34.48275862068966,-0.836,-0.546,-0.069
162557,1755607030767,53.8,-99.93,-56.94,799,777,783,390,888,33.333333333333336,-0.837,-0.545,-0.069
162587,1755607030797,53.78,-99.83,-56.94,802,769,780,343,891,33.333333333333336,-0.835,-0.546,-0.066
162637,1755607030847,53.89,-99.64,-56.97,803,776,782,378,881,50.0,-0.837,-0.548,-0.066
162666,1755607030876,53.83,-99.49,-56.94,799,779,780,372,886,34.48275862068966,-0.834,-0.548,-0.066
162696,1755607030906,53.81,-99.38,-56.92,798,774,780,424,887,33.333333333333336,-0.835,-0.549,-0.066
162726,1755607030936,53.86,-99.38,-56.93,797,774,781,427,881,33.333333333333336,-0.834,-0.547,-0.067
162756,1755607030965,53.83,-99.26,-56.92,797,781,777,370,892,33.333333333333336,-0.836,-0.546,-0.067
162785,1755607030995,53.77,-99.19,-56.91,802,776,775,321,887,34.48275862068966,-0.836,-0.546,-0.063
162815,1755607031025,53.68,-99.07,-56.89,797,778,780,370,886,33.333333333333336,-0.834,-0.546,-0.06
162845,1755607031054,53.74,-99.04,-56.89,801,772,780,410,881,33.333333333333336,-0.836,-0.546,-0.058
162874,1755607031084,53.75,-99.03,-56.9,798,773,777,389,887,34.48275862068966,-0.836,-0.545,-0.054
162904,1755607031113,53.76,-98.94,-56.92,801,776,779,345,886,33.333333333333336,-0.837,-0.545,-0.053
162933,1755607031143,53.78,-98.84,-56.92,801,778,780,362,887,34.48275862068966,-0.836,-0.545,-0.052
162963,1755607031173,53.81,-98.83,-56.94,795,777,780,409,891,33.333333333333336,-0.837,-0.546,-0.051
162993,1755607031202,53.75,-98.77,-56.96,799,773,778,428,892,33.333333333333336,-0.835,-0.547,-0.051
163022,1755607031232,53.8,-98.74,-56.98,798,775,777,381,884,34.48275862068966,-0.837,-0.547,-0.05
163052,1755607031262,53.82,-98.65,-56.95,800,770,782,349,886,33.333333333333336,-0.838,-0.545,-0.047
163082,1755607031291,53.72,-98.46,-56.9,796,775,781,384,891,33.333333333333336,-0.838,-0.545,-0.045
163111,1755607031321,53.71,-98.29,-56.9,796,778,780,433,888,34.48275862068966,-0.838,-0.545,-0.046
163131,1755607031341,53.8,-98.19,-56.9,796,769,776,374,883,50.0,-0.839,-0.546,-0.046
163161,1755607031371,53.8,-98.03,-56.89,796,774,783,411,886,33.333333333333336,-0.837,-0.546,-0.046
163191,1755607031401,53.77,-97.9,-56.87,800,773,784,394,891,33.333333333333336,-0.838,-0.548,-0.044
163221,1755607031431,53.82,-97.8,-56.85,795,773,781,337,889,33.333333333333336,-0.838,-0.544,-0.043
163251,1755607031460,53.85,-97.7,-56.84,804,775,780,341,886,33.333333333333336,-0.839,-0.543,-0.04
163280,1755607031490,53.84,-97.59,-56.84,800,766,781,384,884,34.48275862068966,-0.838,-0.544,-0.039
163310,1755607031519,53.85,-97.48,-56.83,801,779,782,408,888,33.333333333333336,-0.838,-0.545,-0.04
163339,1755607031549,53.87,-97.37,-56.82,799,781,780,368,884,34.48275862068966,-0.837,-0.546,-0.041
163369,1755607031579,53.9,-97.27,-56.82,798,776,782,346,888,33.333333333333336,-0.838,-0.546,-0.04
163399,1755607031608,53.91,-97.19,-56.81,797,772,782,367,885,33.333333333333336,-0.839,-0.544,-0.039
163428,1755607031638,53.97,-97.14,-56.81,800,775,780,419,885,34.48275862068966,-0.839,-0.545,-0.037
163458,1755607031668,53.97,-97.1,-56.8,801,777,780,395,885,33.333333333333336,-0.838,-0.544,-0.035
163488,1755607031697,54.0,-97.05,-56.82,793,775,780,340,889,33.333333333333336,-0.839,-0.544,-0.034
163547,1755607031757,54.09,-96.83,-56.81,798,769,776,402,888,33.333333333333336,-0.839,-0.543,-0.034
