timestamp_ms,recv_timestamp_ms,pitch,roll,yaw,flex1,flex2,flex3,flex4,flex5,sampling_hz,accel_x,accel_y,accel_z
181111,1755607050038,55.6,-84.56,-58.15,791,770,773,421,879,33.333333333333336,-0.836,-0.548,0.06
181141,1755607050040,55.63,-84.54,-58.15,797,773,780,386,885,33.333333333333336,-0.836,-0.547,0.061
181170,1755607050043,55.58,-84.54,-58.15,794,773,777,355,878,34.48275862068966,-0.835,-0.547,0.059
181200,1755607050045,55.54,-84.55,-58.13,797,773,781,367,877,33.333333333333336,-0.835,-0.547,0.059
181229,1755607050046,55.52,-84.53,-58.12,793,775,780,419,879,34.48275862068966,-0.836,-0.548,0.06
181259,1755607050048,55.57,-84.5,-58.12,796,774,783,405,879,33.333333333333336,-0.835,-0.547,0.06
181288,1755607050050,55.56,-84.51,-58.14,795,771,779,364,875,34.48275862068966,-0.834,-0.547,0.059
181318,1755607050053,55.57,-84.45,-58.13,792,779,778,348,878,33.333333333333336,-0.836,-0.548,0.06
181348,1755607050055,55.59,-84.37,-58.13,795,778,780,386,880,33.333333333333336,-0.835,-0.548,0.059
181377,1755607050056,55.61,-84.34,-58.13,794,779,775,418,880,34.48275862068966,-0.835,-0.547,0.057
181407,1755607050058,55.59,-84.33,-58.13,797,777,777,392,881,33.333333333333336,-0.835,-0.547,0.058
181436,1755607050061,55.62,-84.28,-58.13,796,773,779,331,881,34.48275862068966,-0.835,-0.546,0.061
181466,1755607050062,55.65,-84.22,-58.14,795,779,778,366,876,33.333333333333336,-0.835,-0.547,0.061
181496,1755607050065,55.69,-84.26,-58.16,797,776,777,410,879,33.333333333333336,-0.835,-0.548,0.058
181525,1755607050067,55.65,-84.28,-58.17,797,778,778,398,875,34.48275862068966,-0.835,-0.548,0.057
181555,1755607050069,55.67,-84.27,-58.17,796,777,781,350,873,33.333333333333336,-0.836,-0.547,0.058
181585,1755607050071,55.63,-84.22,-58.17,791,769,778,355,881,33.333333333333336,-0.835,-0.548,0.06
181614,1755607050073,55.62,-84.19,-58.17,795,775,780,402,881,34.48275862068966,-0.834,-0.547,0.061
181644,1755607050075,55.63,-84.2,-58.19,792,773,776,427,884,33.333333333333336,-0.834,-0.546,0.06
181673,1755607050078,55.61,-84.22,-58.2,792,775,777,371,878,34.48275862068966,-0.835,-0.547,0.059
181703,1755607050080,55.6,-84.21,-58.19,793,769,782,353,880,33.333333333333336,-0.836,-0.548,0.059
181733,1755607050082,55.61,-84.17,-58.19,796,778,774,384,883,33.333333333333336,-0.836,-0.547,0.06
181753,1755607050084,55.61,-84.17,-58.2,794,778,783,328,882,50.0,-0.835,-0.547,0.06
181782,1755607050086,55.56,-84.18,-58.2,796,778,773,377,880,34.48275862068966,-0.835,-0.548,0.06
181803,1755607050088,55.61,-84.17,-58.2,794,774,776,356,877,47.61904761904762,-0.836,-0.548,0.062
181832,1755607050090,55.61,-84.11,-58.19,794,770,775,378,877,34.48275862068966,-0.834,-0.547,0.062
181862,1755607050092,55.57,-84.09,-58.18,799,776,778,415,875,33.333333333333336,-0.833,-0.548,0.06
181891,1755607050101,55.56,-84.08,-58.2,799,779,776,406,880,34.48275862068966,-0.835,-0.548,0.06
181921,1755607050131,55.55,-84.07,-58.19,791,777,774,356,882,33.333333333333336,-0.833,-0.548,0.061
181950,1755607050160,55.59,-84.05,-58.19,794,776,781,351,881,34.48275862068966,-0.834,-0.548,0.062
181980,1755607050189,55.59,-84.02,-58.18,794,772,774,404,878,33.333333333333336,-0.833,-0.548,0.063
182009,1755607050219,55.55,-84.03,-58.19,789,779,784,399,892,34.48275862068966,-0.833,-0.547,0.061
182038,1755607050248,55.54,-84.02,-58.19,796,773,782,349,869,34.48275862068966,-0.835,-0.547,0.063
182068,1755607050278,55.58,-83.97,-58.19,792,768,775,351,880,33.333333333333336,-0.834,-0.548,0.064
182097,1755607050307,55.58,-83.96,-58.19,795,779,782,401,879,34.48275862068966,-0.834,-0.548,0.063
182127,1755607050337,55.56,-83.95,-58.19,794,773,777,422,886,33.333333333333336,-0.834,-0.548,0.061
182156,1755607050367,55.55,-83.95,-58.19,794,776,777,384,882,34.48275862068966,-0.835,-0.548,0.061
182186,1755607050396,55.6,-83.96,-58.2,794,775,781,344,880,33.333333333333336,-0.835,-0.548,0.062
182215,1755607050426,55.57,-83.95,-58.2,792,773,777,380,880,34.48275862068966,-0.834,-0.547,0.064
182245,1755607050455,55.56,-83.95,-58.2,803,779,779,400,879,33.333333333333336,-0.835,-0.548,0.064
182275,1755607050485,55.55,-83.93,-58.19,789,776,778,400,872,33.333333333333336,-0.834,-0.548,0.064
182305,1755607050515,55.5,-83.89,-58.18,796,779,778,354,874,33.333333333333336,-0.833,-0.547,0.063
182334,1755607050544,55.46,-83.88,-58.18,795,774,776,346,875,34.48275862068966,-0.834,-0.548,0.063
182364,1755607050574,55.46,-83.85,-58.18,796,769,781,390,880,33.333333333333336,-0.833,-0.547,0.064
182393,1755607050603,55.52,-83.83,-58.18,790,773,779,398,873,34.48275862068966,-0.835,-0.547,0.066
182423,1755607050633,55.52,-83.75,-58.17,795,770,776,374,880,33.333333333333336,-0.834,-0.547,0.067
182452,1755607050662,55.51,-83.78,-58.18,792,774,776,343,881,34.48275862068966,-0.833,-0.547,0.064
182482,1755607050692,55.55,-83.82,-58.18,788,780,780,385,880,33.333333333333336,-0.834,-0.547,0.066
182512,1755607050722,55.54,-83.77,-58.18,796,777,782,406,880,33.333333333333336,-0.835,-0.547,0.069
182541,1755607050751,55.55,-83.74,-58.19,793,778,777,401,883,34.48275862068966,-0.836,-0.547,0.068
182571,1755607050781,55.62,-83.73,-58.21,796,769,776,345,888,33.333333333333336,-0.835,-0.547,0.065
182600,1755607050810,55.62,-83.75,-58.21,794,780,777,364,878,34.48275862068966,-0.836,-0.547,0.065
182630,1755607050840,55.58,-83.73,-58.21,796,769,781,398,876,33.333333333333336,-0.834,-0.547,0.065
182659,1755607050869,55.6,-83.72,-58.21,791,771,783,411,876,34.48275862068966,-0.833,-0.547,0.065
182689,1755607050899,55.64,-83.75,-58.21,795,767,778,369,881,33.333333333333336,-0.834,-0.547,0.066
182718,1755607050928,55.63,-83.72,-58.22,794,775,776,340,880,34.48275862068966,-0.834,-0.548,0.065
182748,1755607050958,55.61,-83.7,-58.22,791,776,776,382,879,33.333333333333336,-0.834,-0.548,0.064
182777,1755607050987,55.6,-83.72,-58.22,793,780,777,408,880,34.48275862068966,-0.834,-0.548,0.064
182807,1755607051017,55.63,-83.71,-58.22,789,781,779,373,881,33.333333333333336,-0.834,-0.547,0.066
182837,1755607051047,55.61,-83.67,-58.22,796,780,778,328,874,33.333333333333336,-0.835,-0.547,0.067
182866,1755607051076,55.6,-83.64,-58.22,794,771,776,357,881,34.48275862068966,-0.834,-0.547,0.066
182896,1755607051106,55.64,-83.63,-58.23,793,776,779,416,882,33.333333333333336,-0.833,-0.547,0.066
182925,1755607051136,55.65,-83.66,-58.24,790,776,780,404,883,34.48275862068966,-0.835,-0.547,0.066
182955,1755607051165,55.59,-83.63,-58.24,794,780,776,370,878,33.333333333333336,-0.834,-0.547,0.065
182985,1755607051195,55.63,-83.62,-58.24,795,776,783,348,873,33.333333333333336,-0.834,-0.547,0.064
183014,1755607051224,55.64,-83.6,-58.25,797,780,776,415,882,34.48275862068966,-0.833,-0.546,0.066
183044,1755607051254,55.62,-83.59,-58.25,795,767,779,431,878,33.333333333333336,-0.833,-0.547,0.066
183073,1755607051283,55.58,-83.58,-58.25,796,779,781,373,880,34.48275862068966,-0.834,-0.548,0.065
183103,1755607051313,55.62,-83.57,-58.25,792,774,782,323,878,33.333333333333336,-0.834,-0.547,0.064
183132,1755607051343,55.59,-83.56,-58.25,796,779,780,370,878,34.48275862068966,-0.833,-0.548,0.064
183162,1755607051372,55.55,-83.55,-58.24,796,774,780,407,880,33.333333333333336,-0.834,-0.548,0.063
183192,1755607051402,55.55,-83.55,-58.23,797,780,777,387,877,33.333333333333336,-0.835,-0.548,0.064
183221,1755607051431,55.57,-83.57,-58.25,794,775,780,348,873,34.48275862068966,-0.834,-0.547,0.066
183251,1755607051461,55.57,-83.53,-58.24,795,780,774,345,878,33.333333333333336,-0.835,-0.547,0.068
183280,1755607051490,55.54,-83.52,-58.23,790,774,778,397,880,34.48275862068966,-0.835,-0.548,0.066
183310,1755607051520,55.59,-83.53,-58.25,791,774,777,404,883,33.333333333333336,-0.835,-0.547,0.065
183339,1755607051549,55.58,-83.53,-58.26,795,773,774,369,874,34.48275862068966,-0.834,-0.547,0.066
183369,1755607051579,55.54,-83.49,-58.25,789,776,780,332,878,33.333333333333336,-0.834,-0.547,0.065
183398,1755607051608,55.54,-83.5,-58.25,795,776,778,379,880,34.48275862068966,-0.834,-0.547,0.065
183428,1755607051638,55.6,-83.51,-58.26,792,772,775,420,882,33.333333333333336,-0.835,-0.548,0.067
183458,1755607051668,55.56,-83.48,-58.25,795,778,781,404,876,33.333333333333336,-0.835,-0.547,0.067
183487,1755607051697,55.53,-83.47,-58.25,796,776,782,357,874,34.48275862068966,-0.834,-0.547,0.066
183517,1755607051727,55.58,-83.49,-58.27,793,769,775,314,876,33.333333333333336,-0.834,-0.547,0.068
183546,1755607051757,55.57,-83.47,-58.27,793,772,777,382,880,34.48275862068966,-0.835,-0.547,0.068
183576,1755607051787,55.55,-83.41,-58.25,791,777,782,409,878,33.333333333333336,-0.834,-0.547,0.068
183596,1755607051806,55.55,-83.41,-58.26,794,775,772,377,884,50.0,-0.833,-0.547,0.067
183626,1755607051835,55.58,-83.44,-58.27,791,778,778,405,883,33.333333333333336,-0.833,-0.547,0.066
183655,1755607051865,55.55,-83.43,-58.26,788,775,781,348,881,34.48275862068966,-0.834,-0.547,0.067
183684,1755607051894,55.52,-83.4,-58.26,791,774,777,344,880,34.48275862068966,-0.833,-0.546,0.068
183714,1755607051924,55.57,-83.39,-58.27,795,780,779,408,877,33.333333333333336,-0.834,-0.547,0.069
183744,1755607051954,55.59,-83.4,-58.28,792,777,780,410,883,33.333333333333336,-0.834,-0.547,0.07
183773,1755607051983,55.55,-83.38,-58.27,794,775,777,382,884,34.48275862068966,-0.834,-0.547,0.068
183803,1755607052014,55.59,-83.39,-58.28,794,774,780,332,880,33.333333333333336,-0.834,-0.547,0.067
183833,1755607052043,55.57,-83.37,-58.27,797,770,778,362,875,33.333333333333336,-0.834,-0.547,0.067
183863,1755607052073,55.54,-83.34,-58.26,793,768,774,416,884,33.333333333333336,-0.834,-0.547,0.067
183892,1755607052102,55.55,-83.34,-58.25,797,780,781,398,878,34.48275862068966,-0.835,-0.547,0.069
183922,1755607052132,55.56,-83.35,-58.26,795,776,778,363,877,33.333333333333336,-0.836,-0.547,0.069
183951,1755607052162,55.55,-83.34,-58.26,795,770,775,353,874,34.48275862068966,-0.836,-0.548,0.068
183981,1755607052191,55.56,-83.32,-58.26,794,772,777,401,878,33.333333333333336,-0.835,-0.548,0.067
184011,1755607052221,55.57,-83.31,-58.27,793,771,784,430,881,33.333333333333336,-0.836,-0.547,0.068
184040,1755607052250,55.58,-83.31,-58.27,795,773,774,393,878,34.48275862068966,-0.835,-0.547,0.07
184070,1755607052280,55.56,-83.29,-58.28,792,775,779,349,882,33.333333333333336,-0.835,-0.547,0.071
184100,1755607052310,55.55,-83.29,-58.27,795,773,780,361,880,33.333333333333336,-0.835,-0.547,0.07
184158,1755607052369,55.53,-83.3,-58.29,795,773,773,413,875,34.48275862068966,-0.836,-0.547,0.07
184247,1755607052458,55.52,-83.25,-58.3,788,775,776,389,875,34.48275862068966,-0.835,-0.547,0.071
184277,1755607052487,55.5,-83.22,-58.29,794,773,782,412,880,33.333333333333336,-0.835,-0.548,0.071
184307,1755607052517,55.44,-83.18,-58.27,794,776,780,385,883,33.333333333333336,-0.835,-0.548,0.073
184336,1755607052546,55.28,-83.08,-58.22,794,779,781,329,880,34.48275862068966,-0.833,-0.547,0.074
184366,1755607052576,55.67,-83.04,-58.23,792,773,780,366,881,33.333333333333336,-0.832,-0.546,0.074
184395,1755607052606,55.8,-83.06,-58.23,797,782,780,406,880,34.48275862068966,-0.832,-0.546,0.074
184425,1755607052635,55.81,-83.06,-58.24,799,775,776,386,879,33.333333333333336,-0.833,-0.547,0.074
184455,1755607052665,55.69,-83.03,-58.22,796,775,780,339,876,33.333333333333336,-0.834,-0.546,0.071
184485,1755607052695,55.79,-83.14,-58.25,793,776,782,345,880,33.333333333333336,-0.835,-0.546,0.074
184573,1755607052783,55.65,-83.11,-58.29,792,773,780,379,879,34.48275862068966,-0.835,-0.546,0.077
184603,1755607052813,55.74,-83.13,-58.29,794,774,776,361,878,33.333333333333336,-0.835,-0.545,0.078
184632,1755607052843,55.76,-83.06,-58.29,793,777,775,365,879,34.48275862068966,-0.835,-0.544,0.079
184662,1755607052872,55.76,-83.04,-58.31,792,771,779,416,877,33.333333333333336,-0.833,-0.546,0.076
184692,1755607052902,55.83,-83.05,-58.31,789,774,779,407,882,33.333333333333336,-0.835,-0.547,0.076
184721,1755607052931,55.8,-83.02,-58.32,789,773,781,351,877,34.48275862068966,-0.835,-0.547,0.075
184751,1755607052960,55.79,-83.01,-58.32,788,768,774,358,878,33.333333333333336,-0.835,-0.547,0.075
184780,1755607052990,55.75,-83.01,-58.34,791,769,779,396,880,34.48275862068966,-0.835,-0.547,0.075
184809,1755607053020,55.77,-82.96,-58.34,792,774,786,403,882,34.48275862068966,-0.835,-0.547,0.076
184839,1755607053049,55.69,-82.88,-58.33,791,778,781,369,875,33.333333333333336,-0.833,-0.547,0.074
184869,1755607053079,55.77,-82.92,-58.34,795,780,775,330,881,33.333333333333336,-0.835,-0.548,0.075
184898,1755607053108,55.74,-82.91,-58.36,794,772,779,384,880,34.48275862068966,-0.835,-0.547,0.076
184928,1755607053138,55.72,-82.9,-58.37,793,769,776,410,882,33.333333333333336,-0.834,-0.547,0.075
184948,1755607053158,55.74,-82.91,-58.39,791,778,780,375,877,50.0,-0.835,-0.548,0.076
184977,1755607053187,55.77,-82.91,-58.4,794,774,778,419,877,34.48275862068966,-0.834,-0.547,0.076
185007,1755607053217,55.7,-82.88,-58.42,796,769,772,400,877,33.333333333333336,-0.833,-0.547,0.074
185037,1755607053247,55.74,-82.84,-58.42,792,774,781,354,880,33.333333333333336,-0.834,-0.548,0.076
185066,1755607053277,55.76,-82.78,-58.41,791,776,775,374,879,34.48275862068966,-0.833,-0.548,0.078
185086,1755607053297,55.78,-82.73,-58.41,797,780,775,373,879,50.0,-0.833,-0.548,0.078
185107,1755607053317,55.82,-82.7,-58.42,793,774,779,426,888,47.61904761904762,-0.834,-0.55,0.076
185136,1755607053346,55.86,-82.62,-58.41,794,775,774,372,890,34.48275862068966,-0.834,-0.549,0.074
185166,1755607053376,55.87,-82.61,-58.44,792,768,776,374,879,33.333333333333336,-0.833,-0.548,0.073
185195,1755607053405,55.86,-82.72,-58.47,795,772,777,420,874,34.48275862068966,-0.834,-0.549,0.072
185225,1755607053435,55.83,-82.71,-58.46,796,774,777,397,881,33.333333333333336,-0.835,-0.549,0.074
185254,1755607053464,55.85,-82.68,-58.47,791,779,783,347,881,34.48275862068966,-0.833,-0.548,0.076
185284,1755607053494,55.82,-82.66,-58.47,793,777,780,345,879,33.333333333333336,-0.833,-0.548,0.074
185314,1755607053524,55.85,-82.64,-58.46,792,774,782,394,880,33.333333333333336,-0.833,-0.549,0.074
185343,1755607053553,55.81,-82.64,-58.46,791,775,780,418,876,34.48275862068966,-0.833,-0.549,0.073
185373,1755607053583,55.78,-82.64,-58.46,795,774,775,368,877,33.333333333333336,-0.833,-0.548,0.072
185403,1755607053613,55.8,-82.66,-58.47,790,778,781,330,886,33.333333333333336,-0.834,-0.549,0.073
185432,1755607053642,55.79,-82.65,-58.46,792,774,779,376,881,34.48275862068966,-0.834,-0.549,0.075
185462,1755607053672,55.76,-82.62,-58.45,791,770,781,371,878,33.333333333333336,-0.834,-0.548,0.074
185491,1755607053702,55.75,-82.58,-58.44,789,773,777,374,884,34.48275862068966,-0.832,-0.548,0.074
185521,1755607053731,55.8,-82.58,-58.45,783,781,777,344,878,33.333333333333336,-0.833,-0.548,0.073
185551,1755607053761,55.79,-82.59,-58.45,792,778,779,349,883,33.333333333333336,-0.833,-0.548,0.073
185581,1755607053791,55.8,-82.63,-58.46,794,780,781,411,890,33.333333333333336,-0.833,-0.548,0.073
185640,1755607053850,55.67,-82.78,-58.52,791,779,774,373,870,33.333333333333336,-0.831,-0.548,0.071
185669,1755607053879,55.67,-82.81,-58.53,793,778,781,329,885,34.48275862068966,-0.835,-0.549,0.075
185699,1755607053909,55.68,-82.71,-58.51,788,775,780,363,879,33.333333333333336,-0.833,-0.548,0.078
185728,1755607053938,55.66,-82.71,-58.52,793,779,777,413,885,34.48275862068966,-0.83,-0.549,0.076
185758,1755607053968,55.57,-82.73,-58.53,795,769,780,398,882,33.333333333333336,-0.833,-0.55,0.073
185788,1755607053997,55.59,-82.71,-58.53,792,778,780,347,884,33.333333333333336,-0.833,-0.548,0.074
185817,1755607054027,55.58,-82.72,-58.54,794,776,781,340,880,34.48275862068966,-0.834,-0.548,0.076
185847,1755607054057,55.52,-82.73,-58.56,793,778,781,396,872,33.333333333333336,-0.832,-0.549,0.075
185876,1755607054086,55.5,-82.78,-58.58,795,776,780,398,881,34.48275862068966,-0.833,-0.55,0.073
185906,1755607054116,55.5,-82.7,-58.56,793,778,785,345,879,33.333333333333336,-0.833,-0.549,0.073
185935,1755607054145,55.51,-82.68,-58.56,792,771,779,327,883,34.48275862068966,-0.834,-0.548,0.082
185965,1755607054175,55.43,-82.59,-58.57,794,768,780,345,877,33.333333333333336,-0.833,-0.549,0.082
185994,1755607054204,55.57,-82.52,-58.6,792,780,777,395,879,34.48275862068966,-0.834,-0.551,0.078
186024,1755607054234,55.46,-82.55,-58.59,793,776,774,370,880,33.333333333333336,-0.833,-0.55,0.073
186054,1755607054264,55.27,-82.59,-58.58,792,775,779,345,878,33.333333333333336,-0.833,-0.552,0.074
186113,1755607054322,55.19,-82.5,-58.56,792,778,781,393,879,33.333333333333336,-0.833,-0.548,0.088
186142,1755607054352,55.18,-82.33,-58.55,789,780,787,385,880,34.48275862068966,-0.834,-0.549,0.089
186172,1755607054382,55.22,-82.19,-58.53,794,774,778,305,882,33.333333333333336,-0.833,-0.549,0.088
186202,1755607054412,55.19,-82.02,-58.49,793,778,774,325,880,33.333333333333336,-0.833,-0.548,0.086
186231,1755607054441,55.12,-81.9,-58.46,791,778,774,392,880,34.48275862068966,-0.834,-0.547,0.085
186261,1755607054471,55.06,-81.86,-58.47,793,778,775,398,878,33.333333333333336,-0.833,-0.546,0.083
186290,1755607054500,55.07,-81.84,-58.48,792,777,774,381,884,34.48275862068966,-0.833,-0.547,0.083
186320,1755607054530,55.02,-81.8,-58.49,792,778,771,346,880,33.333333333333336,-0.833,-0.549,0.084
186349,1755607054559,54.93,-81.73,-58.46,796,772,777,368,880,34.48275862068966,-0.833,-0.55,0.084
186379,1755607054589,54.83,-81.69,-58.43,791,775,778,397,880,33.333333333333336,-0.833,-0.549,0.086
186408,1755607054618,54.76,-81.66,-58.41,788,776,777,383,879,34.48275862068966,-0.832,-0.549,0.09
186438,1755607054648,54.67,-81.56,-58.38,791,775,781,339,878,33.333333333333336,-0.834,-0.548,0.091
186468,1755607054678,54.56,-81.49,-58.36,793,781,778,332,880,33.333333333333336,-0.832,-0.548,0.095
186497,1755607054707,54.56,-81.39,-58.33,794,778,781,396,878,34.48275862068966,-0.831,-0.548,0.101
186527,1755607054737,54.59,-81.28,-58.33,797,777,782,419,877,33.333333333333336,-0.83,-0.547,0.103
186556,1755607054766,54.67,-81.18,-58.31,791,778,783,375,885,34.48275862068966,-0.833,-0.545,0.104
186586,1755607054796,54.64,-81.07,-58.28,791,778,776,350,874,33.333333333333336,-0.833,-0.542,0.106
186616,1755607054826,54.64,-81.03,-58.29,794,776,775,360,877,33.333333333333336,-0.833,-0.539,0.106
186645,1755607054855,54.64,-80.96,-58.3,792,775,780,420,881,34.48275862068966,-0.836,-0.54,0.105
186675,1755607054885,54.57,-80.93,-58.29,794,768,776,395,876,33.333333333333336,-0.835,-0.54,0.106
186704,1755607054914,54.55,-80.91,-58.31,787,779,778,342,882,34.48275862068966,-0.834,-0.542,0.109
186734,1755607054944,54.6,-80.84,-58.31,795,778,779,341,878,33.333333333333336,-0.834,-0.544,0.111
186763,1755607054973,54.62,-80.78,-58.29,792,774,780,402,879,34.48275862068966,-0.832,-0.544,0.11
186793,1755607055003,54.66,-80.73,-58.29,799,777,781,423,874,33.333333333333336,-0.834,-0.543,0.111
186822,1755607055032,54.66,-80.64,-58.28,791,775,780,372,876,34.48275862068966,-0.835,-0.541,0.112
186852,1755607055062,54.71,-80.6,-58.29,793,774,784,337,878,33.333333333333336,-0.835,-0.54,0.112
186882,1755607055092,54.74,-80.58,-58.3,788,775,780,392,885,33.333333333333336,-0.834,-0.541,0.112
186911,1755607055121,54.75,-80.54,-58.3,793,778,773,406,876,34.48275862068966,-0.833,-0.543,0.111
186941,1755607055151,54.75,-80.5,-58.3,793,779,779,403,886,33.333333333333336,-0.834,-0.543,0.111
186971,1755607055181,54.78,-80.5,-58.29,796,774,779,353,876,33.333333333333336,-0.834,-0.543,0.109
187000,1755607055210,54.84,-80.51,-58.29,794,776,778,369,876,34.48275862068966,-0.836,-0.544,0.107
187030,1755607055240,54.83,-80.54,-58.3,788,776,780,407,879,33.333333333333336,-0.834,-0.541,0.109
187060,1755607055270,54.76,-80.53,-58.3,788,773,778,406,870,33.333333333333336,-0.835,-0.541,0.111
187089,1755607055299,54.81,-80.51,-58.3,787,769,780,379,883,34.48275862068966,-0.836,-0.541,0.11
187119,1755607055329,54.81,-80.51,-58.32,792,776,781,337,876,33.333333333333336,-0.834,-0.54,0.111
187148,1755607055358,54.78,-80.43,-58.31,793,776,780,367,875,34.48275862068966,-0.834,-0.543,0.111
187178,1755607055388,54.85,-80.34,-58.29,792,773,776,400,878,33.333333333333336,-0.833,-0.545,0.109
187208,1755607055418,54.87,-80.32,-58.28,790,778,777,377,877,33.333333333333336,-0.834,-0.544,0.109
187237,1755607055448,54.83,-80.26,-58.25,793,778,778,349,877,34.48275862068966,-0.834,-0.545,0.113
187267,1755607055477,54.9,-80.19,-58.22,791,772,779,354,878,33.333333333333336,-0.834,-0.54,0.114
187297,1755607055507,54.91,-80.16,-58.23,795,769,777,395,874,33.333333333333336,-0.837,-0.536,0.115
187326,1755607055537,54.83,-80.1,-58.21,795,776,780,420,872,34.48275862068966,-0.838,-0.537,0.116
187356,1755607055566,54.83,-80.05,-58.21,795,771,781,364,875,33.333333333333336,-0.835,-0.539,0.113
187386,1755607055596,54.95,-80.09,-58.24,795,779,780,339,878,33.333333333333336,-0.835,-0.541,0.11
187415,1755607055626,54.99,-80.08,-58.24,791,771,772,376,881,34.48275862068966,-0.835,-0.541,0.107
187445,1755607055655,54.95,-80.04,-58.23,788,768,781,404,882,33.333333333333336,-0.835,-0.543,0.106
187474,1755607055684,55.03,-80.08,-58.25,789,773,775,386,876,34.48275862068966,-0.834,-0.542,0.108
187504,1755607055714,55.06,-80.06,-58.27,796,775,775,340,880,33.333333333333336,-0.834,-0.539,0.112
187533,1755607055744,55.03,-79.97,-58.27,788,771,781,347,887,34.48275862068966,-0.836,-0.538,0.114
187563,1755607055773,55.09,-79.94,-58.27,793,771,780,402,879,33.333333333333336,-0.835,-0.539,0.113
187593,1755607055803,55.09,-79.93,-58.29,790,776,780,404,877,33.333333333333336,-0.834,-0.539,0.112
187622,1755607055833,55.04,-79.87,-58.29,795,771,780,349,876,34.48275862068966,-0.836,-0.54,0.11
187652,1755607055862,55.03,-79.84,-58.3,791,775,778,329,876,33.333333333333336,-0.833,-0.54,0.109
187682,1755607055891,55.02,-79.83,-58.32,791,775,779,340,876,33.333333333333336,-0.833,-0.542,0.109
187711,1755607055921,54.99,-79.82,-58.32,790,777,777,392,878,34.48275862068966,-0.833,-0.541,0.11
187740,1755607055951,55.01,-79.79,-58.33,791,775,777,367,880,34.48275862068966,-0.834,-0.541,0.114
187770,1755607055980,55.03,-79.81,-58.37,795,770,779,342,883,33.333333333333336,-0.833,-0.539,0.115
187800,1755607056010,55.04,-79.79,-58.4,792,775,777,349,877,33.333333333333336,-0.833,-0.54,0.115
187829,1755607056040,55.08,-79.75,-58.4,793,776,780,405,875,34.48275862068966,-0.833,-0.541,0.115
187859,1755607056069,54.98,-79.71,-58.41,785,776,777,402,878,33.333333333333336,-0.832,-0.539,0.114
187889,1755607056099,54.91,-79.72,-58.47,794,777,776,354,876,33.333333333333336,-0.832,-0.541,0.111
187918,1755607056128,54.96,-79.73,-58.47,791,780,779,335,875,34.48275862068966,-0.835,-0.541,0.113
187948,1755607056158,54.95,-79.67,-58.48,791,774,780,401,884,33.333333333333336,-0.833,-0.541,0.116
187977,1755607056187,55.06,-79.58,-58.48,789,777,783,426,877,34.48275862068966,-0.834,-0.542,0.118
188007,1755607056217,55.05,-79.47,-58.45,792,774,778,377,876,33.333333333333336,-0.833,-0.542,0.116
188036,1755607056247,55.05,-79.42,-58.44,792,769,777,345,877,34.48275862068966,-0.834,-0.542,0.115
188057,1755607056267,55.05,-79.36,-58.42,792,774,780,397,878,47.61904761904762,-0.834,-0.543,0.115
188086,1755607056297,55.06,-79.29,-58.41,790,774,781,356,876,34.48275862068966,-0.831,-0.542,0.114
188107,1755607056317,55.05,-79.27,-58.41,788,774,782,415,879,47.61904761904762,-0.833,-0.542,0.115
188136,1755607056347,55.07,-79.26,-58.41,792,778,774,356,879,34.48275862068966,-0.833,-0.541,0.115
188157,1755607056367,55.1,-79.21,-58.42,792,777,781,416,879,47.61904761904762,-0.832,-0.541,0.117
188186,1755607056396,55.14,-79.16,-58.41,790,779,778,370,880,34.48275862068966,-0.831,-0.542,0.117
188216,1755607056426,55.13,-79.08,-58.38,794,775,778,386,885,33.333333333333336,-0.832,-0.543,0.121
188245,1755607056456,55.11,-78.99,-58.36,791,774,776,419,879,34.48275862068966,-0.832,-0.542,0.12
188275,1755607056485,55.14,-78.9,-58.34,794,770,774,407,881,33.333333333333336,-0.832,-0.541,0.119
188305,1755607056515,55.17,-78.86,-58.34,797,778,782,343,878,33.333333333333336,-0.833,-0.54,0.118
188334,1755607056544,55.19,-78.83,-58.35,789,770,776,335,879,34.48275862068966,-0.832,-0.538,0.117
188364,1755607056574,55.23,-78.82,-58.37,796,773,779,400,879,33.333333333333336,-0.834,-0.538,0.117
188394,1755607056604,55.26,-78.78,-58.37,790,774,775,417,880,33.333333333333336,-0.834,-0.54,0.118
188423,1755607056633,55.28,-78.79,-58.38,796,778,777,377,883,34.48275862068966,-0.832,-0.541,0.119
188453,1755607056663,55.32,-78.79,-58.39,794,772,778,346,879,33.333333333333336,-0.834,-0.541,0.119
188483,1755607056693,55.28,-78.75,-58.38,787,773,780,368,870,33.333333333333336,-0.833,-0.541,0.118
188512,1755607056722,55.28,-78.71,-58.38,792,774,778,419,882,34.48275862068966,-0.833,-0.541,0.116
188542,1755607056752,55.31,-78.69,-58.38,790,768,779,391,876,33.333333333333336,-0.832,-0.541,0.116
188571,1755607056781,55.35,-78.69,-58.39,793,776,780,333,879,34.48275862068966,-0.833,-0.54,0.117
188601,1755607056811,55.33,-78.63,-58.39,788,774,781,332,876,33.333333333333336,-0.834,-0.542,0.118
188630,1755607056841,55.35,-78.61,-58.38,792,775,780,383,877,34.48275862068966,-0.833,-0.541,0.117
188660,1755607056871,55.35,-78.61,-58.38,793,775,780,402,880,33.333333333333336,-0.833,-0.54,0.118
188681,1755607056891,55.34,-78.58,-58.38,792,778,778,364,877,47.61904761904762,-0.833,-0.538,0.122
188710,1755607056920,55.35,-78.54,-58.38,788,776,781,396,880,34.48275862068966,-0.834,-0.538,0.125
188740,1755607056950,55.4,-78.51,-58.41,790,781,781,358,875,33.333333333333336,-0.833,-0.537,0.124
188769,1755607056980,55.44,-78.46,-58.43,791,777,780,325,875,34.48275862068966,-0.834,-0.539,0.12
188799,1755607057009,55.4,-78.44,-58.43,789,779,777,363,880,33.333333333333336,-0.832,-0.54,0.117
188828,1755607057039,55.37,-78.41,-58.44,793,771,779,413,876,34.48275862068966,-0.832,-0.54,0.118
188858,1755607057068,55.47,-78.39,-58.48,795,780,777,390,868,33.333333333333336,-0.832,-0.542,0.118
188888,1755607057098,55.7,-78.47,-58.59,794,773,781,346,876,33.333333333333336,-0.827,-0.542,0.119
188917,1755607057127,55.82,-78.48,-58.75,794,776,775,354,879,34.48275862068966,-0.83,-0.538,0.121
188947,1755607057157,55.6,-78.42,-58.86,794,773,782,411,882,33.333333333333336,-0.832,-0.539,0.12
188976,1755607057186,55.52,-78.4,-58.98,793,767,775,406,884,34.48275862068966,-0.834,-0.543,0.118
189005,1755607057215,55.61,-78.26,-58.94,793,767,779,368,882,34.48275862068966,-0.835,-0.544,0.119
189035,1755607057245,55.61,-78.27,-58.95,793,776,775,347,881,33.333333333333336,-0.83,-0.544,0.118
189064,1755607057275,55.55,-78.37,-58.98,792,775,781,402,878,34.48275862068966,-0.832,-0.545,0.118
189094,1755607057304,55.53,-78.32,-58.96,798,772,782,416,884,33.333333333333336,-0.83,-0.547,0.117
189124,1755607057334,55.61,-78.35,-58.97,790,775,779,378,882,33.333333333333336,-0.831,-0.547,0.117
189153,1755607057364,55.57,-78.29,-58.96,792,777,777,336,881,34.48275862068966,-0.832,-0.547,0.116
189183,1755607057393,55.62,-78.31,-58.94,794,780,778,378,878,33.333333333333336,-0.831,-0.548,0.113
189212,1755607057422,55.61,-78.35,-58.89,789,769,776,423,873,34.48275862068966,-0.83,-0.548,0.114
189242,1755607057452,55.56,-78.41,-58.86,790,772,778,413,872,33.333333333333336,-0.829,-0.548,0.114
189271,1755607057481,55.57,-78.42,-58.85,794,771,783,344,878,34.48275862068966,-0.83,-0.547,0.116
189301,1755607057511,55.53,-78.39,-58.83,796,775,779,341,878,33.333333333333336,-0.83,-0.546,0.118
189330,1755607057541,55.52,-78.38,-58.84,791,776,778,401,882,34.48275862068966,-0.83,-0.545,0.118
189360,1755607057570,55.5,-78.35,-58.82,797,778,778,407,881,33.333333333333336,-0.829,-0.546,0.115
189390,1755607057600,55.51,-78.35,-58.81,793,776,775,363,872,33.333333333333336,-0.83,-0.546,0.115
189419,1755607057630,55.48,-78.34,-58.8,792,773,777,338,878,34.48275862068966,-0.832,-0.545,0.116
189449,1755607057659,55.48,-78.34,-58.8,794,769,776,369,878,33.333333333333336,-0.831,-0.544,0.116
189479,1755607057689,55.48,-78.37,-58.81,785,776,780,407,879,33.333333333333336,-0.832,-0.545,0.117
189538,1755607057748,55.44,-78.29,-58.78,788,779,777,348,875,33.333333333333336,-0.832,-0.545,0.117
189568,1755607057778,55.46,-78.23,-58.77,794,779,779,354,877,33.333333333333336,-0.831,-0.545,0.117
189597,1755607057807,55.46,-78.21,-58.76,801,778,779,399,879,34.48275862068966,-0.83,-0.545,0.118
189627,1755607057837,55.45,-78.16,-58.76,792,779,782,420,888,33.333333333333336,-0.831,-0.545,0.118
189657,1755607057867,55.48,-78.12,-58.75,794,779,773,377,881,33.333333333333336,-0.83,-0.545,0.117
189677,1755607057887,55.49,-78.11,-58.74,793,772,781,412,876,50.0,-0.83,-0.545,0.118
189707,1755607057917,55.46,-78.13,-58.74,794,775,779,371,875,33.333333333333336,-0.83,-0.544,0.116
189736,1755607057947,55.47,-78.11,-58.72,791,774,777,337,880,34.48275862068966,-0.831,-0.542,0.117
189766,1755607057976,55.41,-78.13,-58.72,789,776,777,363,881,33.333333333333336,-0.831,-0.542,0.117
189796,1755607058006,55.42,-78.13,-58.72,792,773,775,408,879,33.333333333333336,-0.831,-0.544,0.118
189825,1755607058035,55.4,-78.11,-58.7,792,767,779,398,878,34.48275862068966,-0.83,-0.543,0.118
189855,1755607058065,55.38,-78.1,-58.71,791,779,783,342,877,33.333333333333336,-0.831,-0.543,0.118
