timestamp_ms,recv_timestamp_ms,pitch,roll,yaw,flex1,flex2,flex3,flex4,flex5,sampling_hz,accel_x,accel_y,accel_z
160460,1755604453879,82.23,-74.5,-68.38,780,927,892,426,935,34.48275862068966,-0.985,-0.203,-0.03
160490,1755604453881,82.27,-74.91,-68.36,774,915,873,331,925,33.333333333333336,-0.991,-0.204,-0.031
160519,1755604453884,82.19,-75.35,-68.31,780,918,886,337,927,34.48275862068966,-0.992,-0.205,-0.032
160549,1755604453886,82.21,-75.75,-68.24,775,919,882,411,932,33.333333333333336,-0.99,-0.206,-0.034
160579,1755604453887,82.1,-76.23,-68.19,786,925,884,434,925,33.333333333333336,-0.986,-0.204,-0.039
160608,1755604453890,81.97,-76.79,-68.19,784,922,882,381,935,34.48275862068966,-0.983,-0.202,-0.044
160667,1755604453894,81.53,-77.9,-68.25,786,918,885,365,926,34.48275862068966,-0.978,-0.202,-0.047
160697,1755604453896,81.45,-78.41,-68.29,782,928,876,428,926,33.333333333333336,-0.982,-0.203,-0.042
160747,1755604453899,81.18,-79.23,-68.31,780,924,882,427,922,33.333333333333336,-0.985,-0.205,-0.032
160777,1755604453902,81.15,-79.62,-68.3,779,914,893,394,935,33.333333333333336,-0.985,-0.205,-0.032
160807,1755604453905,81.1,-79.99,-68.27,777,920,890,327,931,33.333333333333336,-0.988,-0.205,-0.031
160866,1755604453908,80.95,-80.59,-68.25,784,918,883,395,926,33.333333333333336,-0.984,-0.203,-0.029
160895,1755604453910,80.79,-80.88,-68.23,783,923,878,415,930,34.48275862068966,-0.984,-0.204,-0.032
160925,1755604453912,80.67,-81.11,-68.18,786,924,883,374,936,33.333333333333336,-0.986,-0.202,-0.032
160954,1755604453914,80.61,-81.45,-68.15,785,916,882,317,925,34.48275862068966,-0.983,-0.2,-0.032
160984,1755604453916,80.57,-81.79,-68.16,781,917,887,354,929,33.333333333333336,-0.983,-0.199,-0.028
161013,1755604453918,80.51,-82.07,-68.15,784,920,883,428,921,34.48275862068966,-0.983,-0.199,-0.027
161043,1755604453920,80.43,-82.3,-68.13,786,917,885,355,928,33.333333333333336,-0.985,-0.2,-0.026
161072,1755604453922,80.31,-82.55,-68.09,781,924,879,308,923,34.48275862068966,-0.984,-0.2,-0.026
161102,1755604453925,80.22,-82.82,-68.07,787,922,884,337,927,33.333333333333336,-0.983,-0.198,-0.025
161132,1755604453927,80.22,-83.12,-68.08,782,916,887,406,929,33.333333333333336,-0.984,-0.196,-0.022
161162,1755604453929,80.14,-83.33,-68.08,786,924,883,415,928,33.333333333333336,-0.985,-0.196,-0.02
161191,1755604453930,80.07,-83.54,-68.07,778,927,881,379,922,34.48275862068966,-0.985,-0.197,-0.019
161221,1755604453933,79.96,-83.71,-68.05,778,924,882,323,934,33.333333333333336,-0.986,-0.197,-0.018
161251,1755604453935,79.93,-83.85,-68.05,784,918,884,365,934,33.333333333333336,-0.983,-0.196,-0.017
161271,1755604453937,79.96,-84.02,-68.04,779,914,886,346,925,50.0,-0.983,-0.197,-0.018
161300,1755604453939,80.01,-84.19,-68.02,773,909,887,370,930,34.48275862068966,-0.985,-0.197,-0.019
161330,1755604453941,80.02,-84.38,-68.0,784,921,891,432,931,33.333333333333336,-0.983,-0.195,-0.019
161360,1755604453943,80.05,-84.57,-68.0,786,919,886,393,929,33.333333333333336,-0.982,-0.195,-0.019
161390,1755604453945,80.05,-84.8,-68.0,775,921,885,329,929,33.333333333333336,-0.984,-0.196,-0.019
161420,1755604453947,80.06,-84.96,-67.96,785,921,883,308,929,33.333333333333336,-0.984,-0.194,-0.019
161440,1755604453949,80.08,-85.14,-67.94,783,917,885,355,927,50.0,-0.985,-0.193,-0.016
161469,1755604453951,80.12,-85.3,-67.93,780,920,885,340,920,34.48275862068966,-0.984,-0.191,-0.013
161499,1755604453953,80.11,-85.31,-67.89,781,920,874,363,928,33.333333333333336,-0.983,-0.191,-0.01
161528,1755604453955,80.13,-85.43,-67.88,781,921,881,407,929,34.48275862068966,-0.986,-0.191,-0.014
161558,1755604453957,80.22,-85.52,-67.85,782,923,883,346,932,33.333333333333336,-0.991,-0.194,-0.016
161617,1755604453961,80.25,-85.53,-67.7,784,919,885,330,921,34.48275862068966,-0.984,-0.192,-0.018
161647,1755604453964,80.3,-85.64,-67.69,782,915,877,405,930,33.333333333333336,-0.981,-0.189,-0.021
161677,1755604453966,80.29,-85.83,-67.71,780,894,881,403,926,33.333333333333336,-0.983,-0.187,-0.025
161736,1755604453970,80.27,-86.23,-67.72,779,914,874,336,925,34.48275862068966,-0.984,-0.187,-0.028
161766,1755604453972,80.21,-86.45,-67.73,786,911,885,401,930,33.333333333333336,-0.984,-0.186,-0.027
161796,1755604453974,80.19,-86.67,-67.71,785,918,873,441,926,33.333333333333336,-0.987,-0.185,-0.025
161825,1755604453976,80.22,-86.88,-67.7,788,916,885,410,925,34.48275862068966,-0.987,-0.185,-0.025
161855,1755604453978,80.2,-87.11,-67.71,783,910,883,341,930,33.333333333333336,-0.985,-0.185,-0.026
161914,1755604453982,80.11,-87.53,-67.73,776,923,883,431,926,34.48275862068966,-0.987,-0.183,-0.026
161944,1755604453984,80.11,-87.71,-67.71,780,920,873,427,923,33.333333333333336,-0.99,-0.185,-0.025
161974,1755604453987,80.08,-87.91,-67.69,788,920,873,375,917,33.333333333333336,-0.989,-0.186,-0.024
162004,1755604453988,80.06,-88.08,-67.68,783,912,883,329,923,33.333333333333336,-0.986,-0.186,-0.022
162033,1755604453991,80.07,-88.22,-67.67,779,919,884,356,930,34.48275862068966,-0.984,-0.183,-0.019
162063,1755604454003,80.09,-88.3,-67.66,783,916,878,425,932,33.333333333333336,-0.986,-0.18,-0.017
162093,1755604454032,80.1,-88.4,-67.67,778,923,893,399,931,33.333333333333336,-0.987,-0.178,-0.02
162122,1755604454062,80.12,-88.59,-67.69,784,919,883,330,926,34.48275862068966,-0.988,-0.179,-0.023
162181,1755604454121,80.05,-88.93,-67.73,783,919,877,410,917,34.48275862068966,-0.985,-0.182,-0.025
162211,1755604454151,80.07,-89.11,-67.76,780,920,882,426,924,33.333333333333336,-0.987,-0.184,-0.025
162240,1755604454180,80.06,-89.27,-67.76,780,922,879,364,925,34.48275862068966,-0.99,-0.185,-0.023
162270,1755604454210,80.04,-89.4,-67.76,778,919,879,342,927,33.333333333333336,-0.99,-0.184,-0.02
162300,1755604454239,80.07,-89.52,-67.76,781,910,881,390,927,33.333333333333336,-0.988,-0.182,-0.02
162329,1755604454269,80.12,-89.67,-67.8,778,914,880,429,924,34.48275862068966,-0.984,-0.181,-0.021
162359,1755604454299,80.12,-89.84,-67.88,781,922,876,402,915,33.333333333333336,-0.982,-0.179,-0.023
162388,1755604454328,80.1,-90.01,-67.94,783,918,874,337,926,34.48275862068966,-0.986,-0.182,-0.021
162418,1755604454357,80.07,-90.15,-67.98,785,920,892,375,927,33.333333333333336,-0.989,-0.184,-0.022
162447,1755604454387,80.03,-90.23,-67.99,781,926,888,462,928,34.48275862068966,-0.99,-0.185,-0.023
162477,1755604454417,79.92,-90.3,-67.99,787,923,883,449,933,33.333333333333336,-0.987,-0.186,-0.023
162507,1755604454446,79.85,-90.4,-68.01,780,912,883,381,928,33.333333333333336,-0.987,-0.187,-0.023
162536,1755604454476,79.72,-90.5,-68.0,776,923,875,343,928,34.48275862068966,-0.988,-0.186,-0.021
162566,1755604454506,79.7,-90.57,-68.01,787,922,883,402,930,33.333333333333336,-0.99,-0.185,-0.016
162596,1755604454535,79.67,-90.61,-68.03,777,912,886,443,917,33.333333333333336,-0.985,-0.184,-0.015
162625,1755604454565,79.58,-90.66,-68.08,784,924,877,425,919,34.48275862068966,-0.984,-0.184,-0.015
162655,1755604454594,79.48,-90.7,-68.12,782,922,877,365,921,33.333333333333336,-0.988,-0.186,-0.018
162684,1755604454624,79.36,-90.76,-68.11,781,912,878,394,921,34.48275862068966,-0.99,-0.189,-0.016
162714,1755604454654,79.23,-90.85,-68.12,782,916,864,453,934,33.333333333333336,-0.984,-0.191,-0.018
162744,1755604454683,79.26,-90.96,-68.12,781,920,883,392,928,33.333333333333336,-0.987,-0.192,-0.015
162773,1755604454713,79.25,-90.99,-68.1,782,919,879,326,931,34.48275862068966,-0.988,-0.19,-0.01
162803,1755604454742,79.28,-90.99,-68.07,780,909,879,320,916,33.333333333333336,-0.989,-0.188,-0.008
162832,1755604454772,79.31,-91.0,-68.05,781,922,884,386,927,34.48275862068966,-0.986,-0.186,-0.007
162862,1755604454802,79.32,-91.03,-68.07,784,927,881,420,917,33.333333333333336,-0.983,-0.185,-0.007
162891,1755604454831,79.34,-91.04,-68.1,782,915,885,376,927,34.48275862068966,-0.984,-0.184,-0.007
162921,1755604454861,79.3,-91.05,-68.11,776,914,875,306,923,33.333333333333336,-0.987,-0.185,-0.006
162951,1755604454890,79.32,-91.05,-68.12,783,920,881,349,925,33.333333333333336,-0.987,-0.185,-0.005
162980,1755604454920,79.39,-91.04,-68.13,777,920,870,436,926,34.48275862068966,-0.987,-0.186,-0.004
163000,1755604454940,79.41,-91.03,-68.13,784,904,889,333,922,50.0,-0.986,-0.185,-0.004
163030,1755604454969,79.42,-91.01,-68.15,781,914,885,422,920,33.333333333333336,-0.985,-0.185,-0.006
163059,1755604454999,79.41,-91.07,-68.17,784,907,882,413,919,34.48275862068966,-0.987,-0.186,-0.008
163089,1755604455029,79.42,-91.11,-68.18,782,912,878,348,924,33.333333333333336,-0.989,-0.187,-0.009
163119,1755604455059,79.42,-91.16,-68.19,778,921,889,337,927,33.333333333333336,-0.988,-0.187,-0.007
163149,1755604455088,79.44,-91.14,-68.19,780,917,875,394,925,33.333333333333336,-0.987,-0.186,-0.004
163178,1755604455118,79.42,-91.11,-68.18,781,925,877,422,924,34.48275862068966,-0.988,-0.185,-0.003
163238,1755604455177,79.51,-91.16,-68.16,786,915,864,295,923,33.333333333333336,-0.991,-0.186,-0.006
163267,1755604455207,79.53,-91.13,-68.14,782,914,872,349,923,34.48275862068966,-0.986,-0.184,-0.005
163297,1755604455237,79.57,-91.12,-68.16,780,925,863,435,918,33.333333333333336,-0.984,-0.182,-0.005
163356,1755604455296,79.57,-91.19,-68.23,778,918,878,348,932,33.333333333333336,-0.984,-0.185,-0.009
163386,1755604455325,79.55,-91.24,-68.24,778,912,878,329,927,33.333333333333336,-0.989,-0.187,-0.007
163445,1755604455384,79.55,-91.22,-68.17,776,914,882,398,933,33.333333333333336,-0.987,-0.185,-0.001
163474,1755604455414,79.6,-91.21,-68.15,780,921,888,368,921,34.48275862068966,-0.986,-0.184,-0.004
163504,1755604455444,79.58,-91.2,-68.13,782,911,881,309,927,33.333333333333336,-0.986,-0.182,-0.008
163534,1755604455474,79.56,-91.22,-68.13,776,924,882,330,928,33.333333333333336,-0.986,-0.182,-0.009
163593,1755604455533,79.62,-91.27,-68.17,781,928,873,420,924,33.333333333333336,-0.986,-0.18,-0.005
163623,1755604455562,79.59,-91.24,-68.18,784,918,881,346,917,33.333333333333336,-0.985,-0.181,-0.003
163652,1755604455592,79.61,-91.21,-68.19,778,927,873,328,913,34.48275862068966,-0.987,-0.182,-0.004
163682,1755604455622,79.63,-91.22,-68.19,783,916,883,392,913,33.333333333333336,-0.989,-0.182,-0.005
163712,1755604455651,79.58,-91.2,-68.18,784,926,887,412,931,33.333333333333336,-0.988,-0.182,-0.006
163741,1755604455681,79.62,-91.22,-68.18,776,915,877,399,922,34.48275862068966,-0.988,-0.183,-0.006
163771,1755604455710,79.62,-91.26,-68.19,783,923,871,321,927,33.333333333333336,-0.987,-0.182,-0.005
163830,1755604455769,79.55,-91.36,-68.24,782,918,874,444,925,33.333333333333336,-0.986,-0.181,-0.008
163859,1755604455799,79.44,-91.53,-68.29,783,919,875,427,920,34.48275862068966,-0.985,-0.181,-0.007
163889,1755604455829,79.33,-91.58,-68.32,787,919,884,328,917,33.333333333333336,-0.986,-0.182,-0.004
163919,1755604455859,79.27,-91.51,-68.31,784,922,891,331,923,33.333333333333336,-0.987,-0.182,-0.001
163949,1755604455888,79.28,-91.34,-68.3,782,916,878,398,926,33.333333333333336,-0.99,-0.18,-0.001
163978,1755604455918,79.25,-91.17,-68.26,782,918,884,430,921,34.48275862068966,-0.989,-0.181,0.001
164008,1755604455947,79.26,-91.11,-68.24,782,922,889,367,918,33.333333333333336,-0.988,-0.182,-0.002
164037,1755604455977,79.21,-90.93,-68.21,782,910,879,322,915,34.48275862068966,-0.985,-0.184,0.002
164067,1755604456006,79.23,-90.78,-68.21,783,917,879,356,924,33.333333333333336,-0.985,-0.18,0.001
164096,1755604456036,79.23,-90.75,-68.22,779,923,881,428,923,34.48275862068966,-0.987,-0.181,-0.001
164126,1755604456066,79.28,-90.72,-68.19,782,910,871,410,925,33.333333333333336,-0.988,-0.181,0.001
164186,1755604456125,79.29,-90.74,-68.2,782,914,879,329,936,33.333333333333336,-0.987,-0.18,0.003
164215,1755604456155,79.31,-90.71,-68.19,781,917,878,387,925,34.48275862068966,-0.989,-0.179,0.004
164245,1755604456185,79.29,-90.64,-68.18,780,916,881,412,935,33.333333333333336,-0.99,-0.179,0.006
164275,1755604456214,79.28,-90.51,-68.18,779,924,871,382,915,33.333333333333336,-0.987,-0.178,0.007
164304,1755604456244,79.34,-90.37,-68.2,779,910,876,325,916,34.48275862068966,-0.986,-0.177,0.009
164334,1755604456274,79.38,-90.28,-68.21,786,925,882,332,926,33.333333333333336,-0.988,-0.178,0.008
164393,1755604456333,79.46,-90.13,-68.21,782,919,876,413,930,34.48275862068966,-0.988,-0.178,0.006
164423,1755604456363,79.49,-90.09,-68.23,788,927,870,343,924,33.333333333333336,-0.988,-0.178,0.006
164453,1755604456392,79.49,-90.02,-68.23,785,920,884,306,919,33.333333333333336,-0.986,-0.178,0.007
164512,1755604456452,79.55,-89.89,-68.28,781,913,890,402,919,33.333333333333336,-0.988,-0.178,0.008
164541,1755604456481,79.55,-89.81,-68.29,781,917,887,386,925,34.48275862068966,-0.989,-0.178,0.008
164571,1755604456511,79.57,-89.74,-68.29,779,920,881,323,926,33.333333333333336,-0.988,-0.178,0.006
164601,1755604456540,79.57,-89.7,-68.31,778,921,882,348,930,33.333333333333336,-0.988,-0.177,0.009
164630,1755604456570,79.57,-89.59,-68.32,778,920,876,426,921,34.48275862068966,-0.988,-0.177,0.01
164660,1755604456600,79.55,-89.53,-68.35,780,912,880,418,929,33.333333333333336,-0.987,-0.177,0.006
164680,1755604456620,79.58,-89.53,-68.38,777,923,874,393,927,50.0,-0.987,-0.179,0.003
164710,1755604456649,79.55,-89.53,-68.39,779,907,885,383,930,33.333333333333336,-0.988,-0.179,0.003
164739,1755604456679,79.54,-89.53,-68.42,784,930,878,349,935,34.48275862068966,-0.986,-0.178,0.003
164769,1755604456709,79.56,-89.52,-68.46,780,910,873,320,933,33.333333333333336,-0.987,-0.178,0.008
164789,1755604456729,79.56,-89.44,-68.47,781,920,884,374,922,50.0,-0.988,-0.178,0.011
164819,1755604456758,79.62,-89.31,-68.46,780,913,878,351,929,33.333333333333336,-0.992,-0.18,0.012
164848,1755604456788,79.64,-89.26,-68.45,782,916,879,419,915,34.48275862068966,-0.992,-0.181,0.01
164868,1755604456808,79.64,-89.17,-68.45,790,911,886,344,918,50.0,-0.989,-0.181,0.008
164898,1755604456838,79.66,-89.12,-68.46,785,916,876,430,922,33.333333333333336,-0.987,-0.18,0.008
164928,1755604456867,79.65,-89.08,-68.47,782,927,872,440,922,33.333333333333336,-0.989,-0.179,0.006
164957,1755604456897,79.64,-89.07,-68.48,784,912,885,380,923,34.48275862068966,-0.989,-0.178,0.007
164987,1755604456926,79.67,-89.01,-68.48,783,916,880,333,925,33.333333333333336,-0.989,-0.179,0.009
165016,1755604456956,79.71,-88.93,-68.48,781,914,881,372,918,34.48275862068966,-0.989,-0.179,0.011
165046,1755604456986,79.74,-88.84,-68.48,784,920,875,420,927,33.333333333333336,-0.989,-0.179,0.011
165076,1755604457015,79.74,-88.8,-68.49,783,915,881,425,921,33.333333333333336,-0.987,-0.178,0.009
165105,1755604457045,79.78,-88.78,-68.5,776,921,882,335,923,34.48275862068966,-0.988,-0.178,0.007
165164,1755604457104,79.82,-88.74,-68.53,783,913,872,429,915,34.48275862068966,-0.988,-0.178,0.007
165194,1755604457133,79.84,-88.7,-68.55,787,925,875,415,925,33.333333333333336,-0.988,-0.178,0.008
165223,1755604457163,79.86,-88.7,-68.56,781,915,884,365,920,34.48275862068966,-0.989,-0.18,0.005
165253,1755604457193,79.9,-88.72,-68.56,781,918,885,315,920,33.333333333333336,-0.99,-0.181,0.005
165282,1755604457222,79.96,-88.74,-68.57,777,918,877,362,920,34.48275862068966,-0.987,-0.178,0.006
165312,1755604457252,79.99,-88.69,-68.58,779,923,884,442,914,33.333333333333336,-0.986,-0.177,0.006
165342,1755604457281,80.0,-88.67,-68.61,782,920,876,401,920,33.333333333333336,-0.986,-0.177,0.005
165371,1755604457311,79.97,-88.67,-68.64,775,921,886,331,916,34.48275862068966,-0.987,-0.179,0.003
165401,1755604457341,79.97,-88.65,-68.64,783,908,880,334,921,33.333333333333336,-0.987,-0.18,0.003
165431,1755604457370,79.99,-88.65,-68.66,774,919,884,410,922,33.333333333333336,-0.988,-0.179,0.004
165460,1755604457400,79.96,-88.65,-68.68,781,921,882,429,917,34.48275862068966,-0.987,-0.179,0.005
165490,1755604457430,79.98,-88.62,-68.69,782,904,875,372,924,33.333333333333336,-0.989,-0.181,0.004
165520,1755604457459,79.98,-88.61,-68.67,780,919,884,325,925,33.333333333333336,-0.992,-0.181,0.002
165549,1755604457489,80.0,-88.64,-68.67,780,912,876,366,930,34.48275862068966,-0.99,-0.179,0.003
165579,1755604457519,79.99,-88.64,-68.69,781,913,880,430,924,33.333333333333336,-0.985,-0.178,0.006
165609,1755604457548,80.02,-88.62,-68.72,783,908,881,401,927,33.333333333333336,-0.986,-0.18,0.004
165638,1755604457578,80.11,-88.69,-68.75,776,912,877,329,926,34.48275862068966,-0.99,-0.18,0.002
165668,1755604457607,80.09,-88.74,-68.77,784,914,887,337,927,33.333333333333336,-0.99,-0.178,0.004
165697,1755604457637,80.12,-88.73,-68.8,778,915,881,417,928,34.48275862068966,-0.987,-0.178,0.005
165727,1755604457666,80.13,-88.73,-68.81,781,910,878,431,920,33.333333333333336,-0.988,-0.18,0.003
165756,1755604457696,80.15,-88.71,-68.81,778,916,868,347,936,34.48275862068966,-0.99,-0.181,0.002
165786,1755604457726,80.14,-88.71,-68.8,782,914,881,291,925,33.333333333333336,-0.988,-0.181,0.003
165816,1755604457756,80.15,-88.7,-68.82,777,910,887,348,919,33.333333333333336,-0.985,-0.179,0.003
165846,1755604457785,80.17,-88.71,-68.84,781,919,875,414,925,33.333333333333336,-0.986,-0.18,0.001
165875,1755604457815,80.16,-88.74,-68.84,780,916,867,395,913,34.48275862068966,-0.989,-0.18,-0.001
165905,1755604457845,80.15,-88.75,-68.85,780,915,875,329,925,33.333333333333336,-0.988,-0.179,0.001
165935,1755604457874,80.16,-88.74,-68.87,783,916,871,332,933,33.333333333333336,-0.986,-0.18,0.001
165964,1755604457904,80.15,-88.78,-68.9,781,905,880,416,918,34.48275862068966,-0.986,-0.18,0.0
165994,1755604457933,80.17,-88.76,-68.92,785,909,873,435,923,33.333333333333336,-0.989,-0.177,0.006
166023,1755604457963,80.17,-88.7,-68.94,778,910,870,350,920,34.48275862068966,-0.989,-0.178,0.006
166053,1755604457992,80.16,-88.67,-68.95,776,915,876,318,916,33.333333333333336,-0.986,-0.181,0.0
166082,1755604458022,80.13,-88.69,-68.96,782,916,882,382,922,34.48275862068966,-0.989,-0.181,-0.001
166112,1755604458051,80.05,-88.7,-68.97,781,912,873,425,919,33.333333333333336,-0.988,-0.18,0.002
166141,1755604458081,80.03,-88.68,-68.99,786,914,871,384,922,34.48275862068966,-0.987,-0.181,0.001
166171,1755604458111,80.02,-88.7,-68.99,781,916,878,316,923,33.333333333333336,-0.988,-0.182,0.001
166200,1755604458140,80.0,-88.7,-68.98,779,907,865,346,916,34.48275862068966,-0.99,-0.182,0.002
166230,1755604458169,80.0,-88.7,-68.96,780,907,888,441,928,33.333333333333336,-0.99,-0.182,0.003
166259,1755604458199,80.02,-88.69,-68.94,775,916,878,427,916,34.48275862068966,-0.988,-0.182,0.005
166289,1755604458229,80.01,-88.66,-68.93,782,919,887,349,926,33.333333333333336,-0.987,-0.18,0.006
166319,1755604458259,79.96,-88.65,-68.94,780,916,872,346,922,33.333333333333336,-0.986,-0.178,0.005
166339,1755604458278,79.95,-88.63,-68.94,788,912,881,385,922,50.0,-0.987,-0.176,0.005
166368,1755604458308,79.92,-88.64,-68.97,781,912,878,369,928,34.48275862068966,-0.986,-0.176,0.004
166398,1755604458338,79.9,-88.6,-68.99,783,918,880,412,923,33.333333333333336,-0.986,-0.177,0.006
166428,1755604458368,79.9,-88.56,-69.02,785,911,881,413,929,33.333333333333336,-0.986,-0.179,0.008
166458,1755604458398,79.93,-88.51,-69.05,780,918,872,377,926,33.333333333333336,-0.987,-0.179,0.009
166488,1755604458427,79.97,-88.43,-69.06,788,914,878,315,925,33.333333333333336,-0.988,-0.181,0.008
166517,1755604458457,79.98,-88.42,-69.06,785,914,881,330,924,34.48275862068966,-0.99,-0.182,0.007
166547,1755604458486,79.98,-88.38,-69.06,775,908,883,416,923,33.333333333333336,-0.989,-0.18,0.008
166576,1755604458516,79.99,-88.32,-69.05,782,913,873,407,926,34.48275862068966,-0.989,-0.179,0.009
166606,1755604458546,80.02,-88.27,-69.05,783,916,873,347,915,33.333333333333336,-0.988,-0.181,0.006
166635,1755604458575,80.05,-88.3,-69.05,780,913,880,329,927,34.48275862068966,-0.99,-0.182,0.002
166665,1755604458604,80.04,-88.32,-69.04,781,928,866,377,917,33.333333333333336,-0.988,-0.18,0.001
166694,1755604458634,80.05,-88.33,-69.06,777,923,885,406,925,34.48275862068966,-0.986,-0.178,0.004
166724,1755604458664,80.08,-88.32,-69.09,779,912,886,370,924,33.333333333333336,-0.986,-0.178,0.006
166753,1755604458693,80.11,-88.33,-69.1,783,915,879,322,919,34.48275862068966,-0.989,-0.18,0.005
166783,1755604458723,80.12,-88.3,-69.08,780,919,887,359,918,33.333333333333336,-0.99,-0.181,0.006
166812,1755604458752,80.14,-88.28,-69.08,782,907,873,418,918,34.48275862068966,-0.988,-0.18,0.006
166842,1755604458782,80.1,-88.26,-69.08,781,911,884,427,920,33.333333333333336,-0.987,-0.178,0.005
166872,1755604458812,80.11,-88.27,-69.11,780,909,882,362,921,33.333333333333336,-0.987,-0.177,0.002
166902,1755604458841,80.07,-88.26,-69.13,778,923,882,311,930,33.333333333333336,-0.988,-0.177,0.002
166931,1755604458871,80.08,-88.28,-69.15,780,917,882,405,926,34.48275862068966,-0.988,-0.179,0.001
166961,1755604458901,80.07,-88.32,-69.17,781,914,881,433,921,33.333333333333336,-0.988,-0.18,0.003
166981,1755604458921,80.08,-88.32,-69.17,783,917,872,386,919,50.0,-0.991,-0.181,0.007
167011,1755604458950,80.09,-88.31,-69.16,782,920,880,410,920,33.333333333333336,-0.991,-0.18,0.006
167040,1755604458980,80.15,-88.31,-69.15,779,909,866,401,925,34.48275862068966,-0.988,-0.179,0.004
167070,1755604459009,80.14,-88.35,-69.16,780,913,879,370,921,33.333333333333336,-0.985,-0.179,0.002
167099,1755604459039,80.16,-88.42,-69.17,782,917,888,413,921,34.48275862068966,-0.988,-0.179,-0.002
167158,1755604459098,80.17,-88.55,-69.18,783,907,875,417,918,34.48275862068966,-0.987,-0.178,0.002
167188,1755604459128,80.15,-88.59,-69.2,785,920,882,339,923,33.333333333333336,-0.984,-0.177,0.002
167218,1755604459157,80.15,-88.6,-69.23,778,906,865,333,913,33.333333333333336,-0.987,-0.177,0.003
167247,1755604459187,80.13,-88.64,-69.26,782,921,875,382,929,34.48275862068966,-0.987,-0.178,0.003
167277,1755604459217,80.11,-88.65,-69.27,783,918,872,421,923,33.333333333333336,-0.989,-0.179,0.005
167307,1755604459247,80.12,-88.64,-69.28,786,899,876,372,927,33.333333333333336,-0.989,-0.179,0.005
167366,1755604459306,80.18,-88.57,-69.29,784,911,875,338,925,34.48275862068966,-0.989,-0.179,0.007
167396,1755604459335,80.17,-88.57,-69.29,785,905,877,399,929,33.333333333333336,-0.988,-0.18,0.004
167425,1755604459365,80.17,-88.57,-69.29,783,908,870,402,921,34.48275862068966,-0.988,-0.18,0.002
167455,1755604459395,80.17,-88.6,-69.31,780,921,872,325,918,33.333333333333336,-0.987,-0.179,-0.001
167514,1755604459454,80.17,-88.6,-69.36,784,914,875,402,927,34.48275862068966,-0.985,-0.174,0.007
167544,1755604459483,80.18,-88.54,-69.39,780,916,874,432,929,33.333333333333336,-0.987,-0.177,0.007
167573,1755604459513,80.19,-88.55,-69.38,783,914,878,390,917,34.48275862068966,-0.991,-0.179,0.002
167603,1755604459542,80.14,-88.56,-69.37,786,916,872,325,921,33.333333333333336,-0.992,-0.179,0.002
167632,1755604459572,80.15,-88.54,-69.37,782,922,880,351,914,34.48275862068966,-0.988,-0.179,0.004
167662,1755604459601,80.17,-88.54,-69.38,780,917,875,426,914,33.333333333333336,-0.987,-0.182,0.004
167691,1755604459631,80.16,-88.53,-69.35,782,904,876,360,924,34.48275862068966,-0.99,-0.184,0.002
167721,1755604459660,80.18,-88.53,-69.32,779,914,876,320,920,33.333333333333336,-0.991,-0.182,0.002
167750,1755604459690,80.17,-88.52,-69.3,789,915,875,294,923,34.48275862068966,-0.988,-0.179,0.003
167780,1755604459719,80.14,-88.5,-69.3,784,917,876,407,918,33.333333333333336,-0.986,-0.177,-0.0
167809,1755604459749,80.11,-88.53,-69.31,779,915,870,404,923,34.48275862068966,-0.987,-0.174,0.002
167839,1755604459779,80.08,-88.52,-69.34,779,911,869,346,924,33.333333333333336,-0.987,-0.174,0.007
167869,1755604459808,80.14,-88.48,-69.37,781,906,878,324,922,33.333333333333336,-0.987,-0.175,0.007
167898,1755604459838,80.15,-88.44,-69.38,781,909,875,397,920,34.48275862068966,-0.988,-0.177,0.008
167928,1755604459868,80.12,-88.41,-69.39,776,918,870,444,925,33.333333333333336,-0.989,-0.178,0.004
167958,1755604459897,80.03,-88.42,-69.38,777,905,879,402,926,33.333333333333336,-0.99,-0.179,-0.0
168017,1755604459957,79.95,-88.45,-69.41,778,907,871,347,915,33.333333333333336,-0.99,-0.18,0.007
168046,1755604459986,79.93,-88.39,-69.41,784,912,876,411,925,34.48275862068966,-0.988,-0.179,0.009
168076,1755604460015,79.95,-88.36,-69.45,783,912,878,428,923,33.333333333333336,-0.979,-0.174,0.009
168105,1755604460045,79.87,-88.35,-69.59,785,911,866,361,923,34.48275862068966,-0.971,-0.172,0.007
168135,1755604460074,79.76,-88.37,-69.74,778,911,877,339,918,33.333333333333336,-0.981,-0.174,0.003
168164,1755604460104,79.74,-88.42,-69.81,779,912,872,373,919,34.48275862068966,-0.999,-0.18,0.005
168194,1755604460133,79.74,-88.38,-69.76,788,914,877,410,922,33.333333333333336,-1.005,-0.185,0.013
168223,1755604460163,79.77,-88.22,-69.66,781,917,891,368,935,34.48275862068966,-0.993,-0.183,0.018
168282,1755604460222,79.8,-88.0,-69.68,782,918,877,329,921,34.48275862068966,-0.984,-0.181,0.008
168312,1755604460252,79.79,-88.05,-69.67,778,911,878,416,928,33.333333333333336,-0.992,-0.182,0.001
168342,1755604460281,79.79,-88.11,-69.64,783,919,884,402,926,33.333333333333336,-0.995,-0.183,0.003
168371,1755604460311,79.84,-88.07,-69.61,779,915,874,337,926,34.48275862068966,-0.989,-0.182,0.011
168401,1755604460341,79.92,-87.99,-69.61,787,912,883,340,930,33.333333333333336,-0.985,-0.183,0.015
168430,1755604460370,79.93,-87.93,-69.61,791,913,874,415,915,34.48275862068966,-0.985,-0.182,0.011
168460,1755604460400,79.91,-87.9,-69.6,784,913,870,422,918,33.333333333333336,-0.988,-0.178,0.01
168490,1755604460430,79.88,-87.82,-69.58,780,905,874,392,928,33.333333333333336,-0.991,-0.176,0.013
168520,1755604460459,79.87,-87.75,-69.59,780,913,879,324,929,33.333333333333336,-0.988,-0.176,0.013
168549,1755604460489,79.88,-87.71,-69.59,779,921,878,339,922,34.48275862068966,-0.987,-0.178,0.012
168579,1755604460519,79.81,-87.65,-69.6,780,914,882,415,926,33.333333333333336,-0.985,-0.179,0.012
168609,1755604460548,79.86,-87.63,-69.62,782,908,882,406,918,33.333333333333336,-0.987,-0.179,0.009
168638,1755604460578,79.91,-87.67,-69.63,781,905,878,326,924,34.48275862068966,-0.991,-0.179,0.008
168668,1755604460608,79.91,-87.68,-69.64,781,912,873,312,921,33.333333333333336,-0.989,-0.178,0.011
168697,1755604460637,79.92,-87.65,-69.65,779,908,873,389,917,34.48275862068966,-0.989,-0.178,0.013
168727,1755604460667,79.89,-87.61,-69.65,779,910,877,430,915,33.333333333333336,-0.989,-0.178,0.012
168757,1755604460696,79.93,-87.59,-69.65,776,918,870,377,919,33.333333333333336,-0.991,-0.178,0.013
168786,1755604460726,79.94,-87.54,-69.63,781,913,877,309,928,34.48275862068966,-0.991,-0.179,0.014
168816,1755604460755,79.96,-87.48,-69.62,778,907,877,350,926,33.333333333333336,-0.988,-0.179,0.011
168845,1755604460785,79.94,-87.5,-69.61,781,904,879,418,922,34.48275862068966,-0.99,-0.178,0.011
168875,1755604460814,79.95,-87.46,-69.61,780,918,869,405,928,33.333333333333336,-0.99,-0.175,0.014
168904,1755604460844,79.98,-87.37,-69.61,782,904,878,329,922,34.48275862068966,-0.989,-0.174,0.016
168934,1755604460874,80.01,-87.34,-69.63,780,908,869,329,925,33.333333333333336,-0.988,-0.174,0.013
168964,1755604460903,80.01,-87.34,-69.66,779,914,876,384,919,33.333333333333336,-0.987,-0.173,0.012
168993,1755604460933,80.01,-87.27,-69.73,789,914,878,398,921,34.48275862068966,-0.983,-0.169,0.014
169023,1755604460963,80.01,-87.23,-69.82,782,924,872,374,914,33.333333333333336,-0.984,-0.169,0.014
169053,1755604460992,80.03,-87.17,-69.92,781,914,879,325,921,33.333333333333336,-0.985,-0.175,0.015
169082,1755604461022,79.95,-87.14,-69.97,779,913,877,355,926,34.48275862068966,-0.993,-0.182,0.012
169112,1755604461052,79.9,-87.1,-69.93,779,909,873,422,918,33.333333333333336,-1.001,-0.185,0.011
169141,1755604461081,79.89,-87.02,-69.86,778,917,867,405,921,34.48275862068966,-0.998,-0.185,0.013
169171,1755604461110,79.93,-86.96,-69.81,784,913,878,319,922,33.333333333333336,-0.989,-0.184,0.012
169200,1755604461140,79.96,-86.98,-69.83,780,920,871,290,921,34.48275862068966,-0.98,-0.181,0.013
169230,1755604461170,79.92,-86.97,-69.9,777,912,875,380,920,33.333333333333336,-0.976,-0.179,0.015
