timestamp_ms,recv_timestamp_ms,pitch,roll,yaw,flex1,flex2,flex3,flex4,flex5,sampling_hz,accel_x,accel_y,accel_z
186636,1755604480518,80.44,-73.3,-74.99,778,906,874,402,924,33.333333333333336,-0.987,-0.166,0.051
186666,1755604480520,80.46,-73.32,-75.03,775,899,868,293,908,33.333333333333336,-0.989,-0.165,0.05
186695,1755604480523,80.42,-73.31,-75.05,782,912,859,323,916,34.48275862068966,-0.989,-0.166,0.05
186725,1755604480526,80.35,-73.29,-75.06,780,906,862,420,919,33.333333333333336,-0.989,-0.168,0.05
186754,1755604480528,80.32,-73.25,-75.09,774,920,871,427,919,34.48275862068966,-0.99,-0.168,0.051
186784,1755604480531,80.31,-73.16,-75.11,781,906,863,339,915,33.333333333333336,-0.99,-0.168,0.053
186813,1755604480533,80.3,-73.08,-75.09,782,907,877,314,927,34.48275862068966,-0.99,-0.169,0.052
186843,1755604480536,80.29,-73.05,-75.1,781,901,855,378,930,33.333333333333336,-0.988,-0.168,0.051
186872,1755604480538,80.3,-73.05,-75.12,779,916,874,426,908,34.48275862068966,-0.987,-0.168,0.054
186902,1755604480541,80.34,-73.03,-75.14,786,906,861,386,917,33.333333333333336,-0.99,-0.168,0.055
186932,1755604480543,80.34,-73.05,-75.14,781,902,866,322,919,33.333333333333336,-0.991,-0.169,0.054
186961,1755604480547,80.36,-73.0,-75.14,781,905,868,351,920,34.48275862068966,-0.99,-0.168,0.054
186991,1755604480549,80.36,-72.96,-75.14,783,909,868,427,919,33.333333333333336,-0.991,-0.167,0.055
187020,1755604480552,80.33,-72.93,-75.14,785,909,861,407,919,34.48275862068966,-0.989,-0.167,0.053
187050,1755604480555,80.42,-72.94,-75.17,778,907,867,328,915,33.333333333333336,-0.989,-0.167,0.052
187079,1755604480557,80.38,-72.98,-75.19,784,907,871,334,919,34.48275862068966,-0.988,-0.168,0.051
187138,1755604480562,80.39,-73.0,-75.22,777,903,864,424,918,34.48275862068966,-0.99,-0.168,0.055
187168,1755604480565,80.41,-72.94,-75.21,785,913,863,364,916,33.333333333333336,-0.991,-0.168,0.056
187197,1755604480567,80.45,-72.93,-75.22,777,900,867,325,923,34.48275862068966,-0.988,-0.169,0.053
187227,1755604480570,80.44,-72.96,-75.24,785,902,863,352,933,33.333333333333336,-0.99,-0.169,0.051
187257,1755604480572,80.4,-72.95,-75.24,783,919,869,420,920,33.333333333333336,-0.99,-0.168,0.049
187286,1755604480574,80.41,-72.92,-75.23,778,911,873,387,915,34.48275862068966,-0.991,-0.168,0.053
187316,1755604480576,80.43,-72.85,-75.21,779,902,861,332,911,33.333333333333336,-0.989,-0.168,0.056
187346,1755604480582,80.46,-72.86,-75.21,782,908,864,330,916,33.333333333333336,-0.987,-0.168,0.053
187375,1755604480584,80.5,-72.9,-75.21,778,913,869,393,909,34.48275862068966,-0.988,-0.168,0.05
187405,1755604480587,80.5,-72.94,-75.23,777,918,862,410,922,33.333333333333336,-0.987,-0.166,0.049
187434,1755604480590,80.49,-72.94,-75.25,780,897,871,322,921,34.48275862068966,-0.988,-0.167,0.05
187464,1755604480595,80.47,-72.95,-75.26,779,896,860,303,927,33.333333333333336,-0.988,-0.167,0.051
187493,1755604480598,80.49,-72.97,-75.29,784,905,856,344,919,34.48275862068966,-0.989,-0.167,0.052
187523,1755604480600,80.51,-72.97,-75.3,781,907,880,409,915,33.333333333333336,-0.99,-0.168,0.052
187552,1755604480604,80.48,-72.94,-75.31,783,907,859,364,923,34.48275862068966,-0.989,-0.167,0.052
187582,1755604480606,80.46,-72.93,-75.32,782,914,865,322,916,33.333333333333336,-0.987,-0.167,0.051
187611,1755604480609,80.48,-72.96,-75.35,778,906,870,343,910,34.48275862068966,-0.987,-0.167,0.05
187641,1755604480612,80.48,-72.97,-75.37,783,908,865,421,926,33.333333333333336,-0.989,-0.167,0.05
187670,1755604480615,80.47,-72.99,-75.39,782,908,864,437,920,34.48275862068966,-0.989,-0.167,0.051
187730,1755604480621,80.49,-72.99,-75.43,784,894,869,310,919,33.333333333333336,-0.989,-0.167,0.051
187759,1755604480623,80.44,-72.97,-75.44,779,907,879,374,913,34.48275862068966,-0.989,-0.168,0.05
187789,1755604480626,80.44,-73.42,-75.45,786,910,873,394,920,33.333333333333336,-0.99,-0.167,0.048
187818,1755604480629,80.46,-73.44,-75.47,785,912,871,364,921,34.48275862068966,-0.988,-0.166,0.05
187848,1755604480632,80.46,-73.42,-75.51,782,910,868,329,916,33.333333333333336,-0.986,-0.166,0.052
187877,1755604480635,80.46,-73.39,-75.53,772,905,875,366,914,34.48275862068966,-0.989,-0.169,0.052
187907,1755604480638,80.46,-73.39,-75.52,786,906,867,431,919,33.333333333333336,-0.992,-0.172,0.049
187966,1755604480644,80.48,-73.4,-75.5,779,913,871,320,922,33.333333333333336,-0.986,-0.167,0.05
187995,1755604480646,80.46,-73.38,-75.53,784,908,865,323,923,34.48275862068966,-0.986,-0.165,0.05
188025,1755604480648,80.39,-73.39,-75.55,779,911,863,400,923,33.333333333333336,-0.991,-0.166,0.049
188054,1755604480652,80.37,-73.42,-75.55,779,910,867,423,915,34.48275862068966,-0.99,-0.168,0.048
188084,1755604480654,80.4,-73.45,-75.55,782,903,868,369,926,33.333333333333336,-0.988,-0.168,0.051
188113,1755604480658,80.43,-73.42,-75.57,777,905,869,341,926,34.48275862068966,-0.987,-0.168,0.054
188143,1755604480660,80.42,-73.42,-75.59,778,907,870,380,928,33.333333333333336,-0.989,-0.169,0.051
188173,1755604480664,80.4,-73.41,-75.58,782,910,869,422,927,33.333333333333336,-0.99,-0.169,0.049
188202,1755604480667,80.4,-73.43,-75.59,781,904,870,400,922,34.48275862068966,-0.987,-0.169,0.052
188232,1755604480670,80.41,-73.44,-75.62,781,907,868,330,916,33.333333333333336,-0.987,-0.17,0.053
188261,1755604480672,80.45,-73.41,-75.61,780,903,870,354,914,34.48275862068966,-0.99,-0.171,0.054
188320,1755604480678,80.47,-73.39,-75.61,780,916,875,411,921,34.48275862068966,-0.989,-0.17,0.048
188350,1755604480680,80.46,-73.45,-75.64,780,902,859,330,909,33.333333333333336,-0.988,-0.169,0.047
188380,1755604480682,80.45,-73.5,-75.67,784,904,865,319,912,33.333333333333336,-0.987,-0.167,0.047
188409,1755604480685,80.44,-73.5,-75.7,786,914,871,383,918,34.48275862068966,-0.989,-0.166,0.05
188439,1755604480687,80.43,-73.46,-75.72,781,905,866,415,912,33.333333333333336,-0.988,-0.167,0.054
188468,1755604480690,80.41,-73.4,-75.73,781,906,866,371,919,34.48275862068966,-0.987,-0.168,0.056
188498,1755604480693,80.43,-73.33,-75.73,783,907,871,312,920,33.333333333333336,-0.989,-0.17,0.054
188527,1755604480696,80.42,-73.36,-75.74,780,908,867,359,917,34.48275862068966,-0.99,-0.171,0.051
188557,1755604480698,80.44,-73.37,-75.73,782,904,864,414,914,33.333333333333336,-0.99,-0.169,0.052
188586,1755604480702,80.44,-73.35,-75.75,780,901,872,419,923,34.48275862068966,-0.987,-0.167,0.052
188616,1755604480705,80.43,-73.34,-75.77,773,896,862,295,917,33.333333333333336,-0.988,-0.167,0.05
188645,1755604480707,80.42,-73.34,-75.79,783,901,863,306,922,34.48275862068966,-0.988,-0.169,0.05
188675,1755604480710,80.42,-73.36,-75.82,784,909,873,396,922,33.333333333333336,-0.989,-0.17,0.051
188705,1755604480712,80.43,-73.35,-75.82,784,907,866,405,914,33.333333333333336,-0.989,-0.171,0.051
188735,1755604480717,80.45,-73.33,-75.82,780,902,873,374,916,33.333333333333336,-0.99,-0.17,0.052
188764,1755604480719,80.44,-73.3,-75.83,777,908,855,314,907,34.48275862068966,-0.991,-0.17,0.052
188794,1755604480734,80.45,-73.31,-75.82,784,909,877,348,919,33.333333333333336,-0.99,-0.169,0.048
188823,1755604480764,80.45,-73.33,-75.86,786,910,874,420,912,34.48275862068966,-0.986,-0.165,0.05
188844,1755604480784,80.45,-73.31,-75.9,778,896,868,325,915,47.61904761904762,-0.982,-0.163,0.053
188873,1755604480814,80.39,-73.27,-75.95,784,923,861,421,917,34.48275862068966,-0.984,-0.167,0.05
188903,1755604480843,80.4,-73.32,-75.98,786,909,877,401,924,33.333333333333336,-0.99,-0.171,0.046
188932,1755604480872,80.35,-73.39,-75.99,784,902,865,328,916,34.48275862068966,-0.991,-0.171,0.048
188962,1755604480902,80.32,-73.34,-75.98,779,906,867,342,927,33.333333333333336,-0.989,-0.17,0.051
188991,1755604480931,80.3,-73.33,-75.98,776,912,872,417,915,34.48275862068966,-0.988,-0.171,0.052
189021,1755604480961,80.28,-73.34,-75.98,782,893,873,426,917,33.333333333333336,-0.988,-0.171,0.051
189050,1755604480990,80.22,-73.33,-75.97,783,897,875,355,924,34.48275862068966,-0.988,-0.169,0.052
189080,1755604481020,80.21,-73.31,-75.99,777,898,870,327,920,33.333333333333336,-0.983,-0.167,0.053
189109,1755604481050,80.17,-73.32,-76.04,786,915,861,344,924,34.48275862068966,-0.982,-0.168,0.052
189139,1755604481079,80.1,-73.35,-76.08,775,903,868,402,916,33.333333333333336,-0.985,-0.17,0.05
189168,1755604481108,80.09,-73.38,-76.1,777,902,863,383,908,34.48275862068966,-0.989,-0.171,0.053
189198,1755604481138,80.12,-73.37,-76.1,781,908,863,312,916,33.333333333333336,-0.99,-0.171,0.057
189227,1755604481168,80.13,-73.31,-76.08,777,902,864,351,917,34.48275862068966,-0.99,-0.172,0.057
189257,1755604481197,80.14,-73.28,-76.07,783,909,874,435,920,33.333333333333336,-0.989,-0.174,0.055
189287,1755604481227,80.17,-73.27,-76.08,782,905,852,423,923,33.333333333333336,-0.987,-0.173,0.055
189316,1755604481257,80.15,-73.2,-76.08,785,908,872,351,923,34.48275862068966,-0.988,-0.171,0.057
189346,1755604481286,80.17,-73.13,-76.08,786,903,871,333,917,33.333333333333336,-0.99,-0.17,0.055
189375,1755604481316,80.19,-73.1,-76.08,782,902,875,411,916,34.48275862068966,-0.986,-0.17,0.053
189405,1755604481345,80.19,-73.07,-76.1,783,904,865,410,918,33.333333333333336,-0.982,-0.17,0.051
189434,1755604481374,80.15,-73.07,-76.16,786,911,870,363,921,34.48275862068966,-0.981,-0.169,0.051
189464,1755604481404,80.1,-73.08,-76.22,776,911,869,328,916,33.333333333333336,-0.986,-0.169,0.052
189493,1755604481462,80.1,-73.06,-76.25,780,908,863,354,915,34.48275862068966,-0.992,-0.171,0.054
189523,1755604481464,80.07,-73.02,-76.24,779,904,865,406,912,33.333333333333336,-0.992,-0.173,0.054
189552,1755604481493,80.06,-72.97,-76.23,780,907,863,398,918,34.48275862068966,-0.987,-0.172,0.056
189582,1755604481522,80.06,-72.92,-76.24,782,912,872,316,916,33.333333333333336,-0.986,-0.172,0.058
189611,1755604481551,80.05,-72.88,-76.25,782,910,866,351,919,34.48275862068966,-0.989,-0.172,0.056
189641,1755604481581,80.07,-72.87,-76.25,781,906,872,403,918,33.333333333333336,-0.99,-0.173,0.056
189670,1755604481611,80.08,-72.86,-76.24,783,906,870,417,917,34.48275862068966,-0.989,-0.173,0.057
189700,1755604481640,80.09,-72.85,-76.25,779,912,861,341,920,33.333333333333336,-0.986,-0.173,0.057
189730,1755604481670,80.09,-72.82,-76.26,779,911,871,331,921,33.333333333333336,-0.986,-0.173,0.056
189759,1755604481699,80.11,-72.83,-76.26,780,903,870,375,918,34.48275862068966,-0.988,-0.173,0.055
189789,1755604481729,80.1,-72.83,-76.26,782,906,869,415,915,33.333333333333336,-0.988,-0.172,0.057
189818,1755604481758,80.09,-72.77,-76.26,786,903,866,387,923,34.48275862068966,-0.988,-0.172,0.057
189848,1755604481788,80.1,-72.68,-76.24,781,903,870,317,911,33.333333333333336,-0.989,-0.172,0.06
189877,1755604481817,80.13,-72.6,-76.24,781,905,869,356,919,34.48275862068966,-0.989,-0.171,0.059
189907,1755604481847,80.11,-72.55,-76.24,781,905,870,416,911,33.333333333333336,-0.983,-0.169,0.055
189936,1755604481877,80.08,-72.56,-76.28,781,905,864,413,915,34.48275862068966,-0.984,-0.17,0.054
189966,1755604481906,80.07,-72.56,-76.32,786,904,860,346,919,33.333333333333336,-0.99,-0.172,0.056
189995,1755604481936,79.64,-72.53,-76.29,778,906,880,326,915,34.48275862068966,-0.996,-0.173,0.061
190025,1755604481965,79.69,-72.44,-76.25,776,908,866,406,915,33.333333333333336,-0.992,-0.173,0.063
190055,1755604481994,79.75,-72.37,-76.23,779,905,872,420,919,33.333333333333336,-0.988,-0.171,0.062
190084,1755604482024,79.78,-72.31,-76.23,784,911,869,376,911,34.48275862068966,-0.987,-0.17,0.057
190113,1755604482053,79.77,-72.31,-76.24,783,909,864,327,924,34.48275862068966,-0.986,-0.169,0.052
190143,1755604482083,79.79,-72.36,-76.27,788,904,867,355,914,33.333333333333336,-0.986,-0.17,0.053
190172,1755604482113,79.76,-72.34,-76.28,784,896,865,415,920,34.48275862068966,-0.985,-0.17,0.056
190202,1755604482142,79.75,-72.32,-76.3,783,910,875,397,925,33.333333333333336,-0.988,-0.17,0.059
190232,1755604482172,79.75,-72.33,-76.3,781,903,870,321,914,33.333333333333336,-0.992,-0.17,0.058
190261,1755604482201,79.8,-72.33,-76.28,777,897,868,345,915,34.48275862068966,-0.992,-0.17,0.056
190291,1755604482230,79.79,-72.32,-76.29,778,905,873,407,915,33.333333333333336,-0.985,-0.17,0.055
190320,1755604482260,79.77,-72.37,-76.35,781,914,866,403,914,34.48275862068966,-0.982,-0.168,0.054
190350,1755604482289,79.72,-72.38,-76.39,783,906,864,350,929,33.333333333333336,-0.986,-0.169,0.055
190379,1755604482319,79.73,-72.36,-76.39,780,908,869,323,913,34.48275862068966,-0.992,-0.17,0.056
190408,1755604482348,79.75,-72.32,-76.37,781,900,863,359,917,34.48275862068966,-0.993,-0.17,0.058
190438,1755604482378,79.79,-72.29,-76.36,780,908,866,412,924,33.333333333333336,-0.988,-0.17,0.057
190467,1755604482407,79.76,-72.27,-76.83,784,905,873,356,922,34.48275862068966,-0.985,-0.169,0.055
190497,1755604482437,79.78,-72.27,-76.85,778,909,871,314,917,33.333333333333336,-0.989,-0.168,0.055
190526,1755604482466,79.81,-72.26,-76.85,781,908,851,356,917,34.48275862068966,-0.99,-0.169,0.055
190556,1755604482496,79.81,-72.27,-76.85,781,907,871,427,922,33.333333333333336,-0.988,-0.169,0.055
190585,1755604482525,79.84,-72.26,-76.87,782,901,863,396,913,34.48275862068966,-0.987,-0.169,0.056
190615,1755604482555,79.82,-72.23,-76.87,780,907,869,323,912,33.333333333333336,-0.988,-0.169,0.056
190644,1755604482584,79.86,-72.23,-76.89,779,907,869,338,918,34.48275862068966,-0.99,-0.17,0.054
190674,1755604482613,79.87,-72.24,-76.89,779,905,868,422,914,33.333333333333336,-0.989,-0.169,0.054
190703,1755604482643,79.89,-72.22,-76.89,786,906,867,398,920,34.48275862068966,-0.988,-0.169,0.056
190733,1755604482672,79.89,-72.19,-76.89,781,907,863,333,918,33.333333333333336,-0.987,-0.169,0.057
190762,1755604482702,79.9,-72.17,-76.9,778,906,875,327,908,34.48275862068966,-0.989,-0.17,0.056
190792,1755604482732,79.92,-72.17,-76.9,781,906,866,389,917,33.333333333333336,-0.99,-0.17,0.054
190821,1755604482761,79.93,-72.21,-76.91,786,902,870,414,921,34.48275862068966,-0.988,-0.169,0.053
190851,1755604482791,79.95,-72.19,-76.92,778,904,860,362,918,33.333333333333336,-0.987,-0.168,0.056
190880,1755604482820,79.92,-72.16,-76.92,780,904,865,327,923,34.48275862068966,-0.988,-0.169,0.057
190910,1755604482850,79.94,-72.18,-76.93,783,910,870,369,911,33.333333333333336,-0.99,-0.17,0.056
190939,1755604482879,79.95,-72.17,-76.92,781,911,865,420,926,34.48275862068966,-0.988,-0.168,0.057
190969,1755604482909,79.95,-72.14,-76.93,783,907,861,388,914,33.333333333333336,-0.987,-0.168,0.056
190998,1755604482938,79.95,-72.13,-76.95,778,907,873,316,921,34.48275862068966,-0.988,-0.168,0.055
191028,1755604482968,79.93,-72.18,-76.97,780,901,861,318,915,33.333333333333336,-0.989,-0.17,0.054
191057,1755604482997,79.96,-72.22,-76.99,782,909,870,403,932,34.48275862068966,-0.989,-0.169,0.054
191087,1755604483027,79.95,-72.17,-76.99,782,904,855,409,915,33.333333333333336,-0.988,-0.167,0.057
191116,1755604483056,79.96,-72.1,-77.0,787,906,872,348,919,34.48275862068966,-0.99,-0.168,0.06
191145,1755604483086,79.95,-72.06,-77.0,782,910,873,334,911,34.48275862068966,-0.988,-0.168,0.058
191175,1755604483115,79.98,-72.04,-77.0,782,911,869,383,918,33.333333333333336,-0.989,-0.169,0.055
191204,1755604483144,79.99,-72.05,-77.01,781,899,868,403,914,34.48275862068966,-0.987,-0.169,0.053
191234,1755604483174,79.98,-72.02,-77.02,776,910,867,354,921,33.333333333333336,-0.987,-0.168,0.055
191263,1755604483204,79.98,-72.0,-77.03,779,908,872,327,918,34.48275862068966,-0.988,-0.168,0.056
191293,1755604483233,80.01,-72.0,-77.04,782,911,866,365,914,33.333333333333336,-0.991,-0.169,0.057
191323,1755604483263,80.07,-72.02,-77.04,781,902,871,431,925,33.333333333333336,-0.992,-0.169,0.056
191352,1755604483292,80.08,-71.99,-77.02,788,902,862,400,917,34.48275862068966,-0.99,-0.169,0.056
191382,1755604483322,80.12,-71.97,-77.02,781,912,869,330,920,33.333333333333336,-0.987,-0.169,0.054
191411,1755604483351,80.12,-72.01,-77.04,781,900,860,337,925,34.48275862068966,-0.987,-0.17,0.053
191441,1755604483381,80.14,-72.02,-77.04,779,909,865,421,915,33.333333333333336,-0.99,-0.169,0.056
191470,1755604483411,80.18,-71.99,-77.03,780,907,869,419,914,34.48275862068966,-0.991,-0.168,0.058
191500,1755604483440,80.18,-71.97,-77.02,781,906,863,370,919,33.333333333333336,-0.991,-0.168,0.057
191530,1755604483470,80.19,-71.94,-77.03,781,900,865,334,911,33.333333333333336,-0.988,-0.168,0.055
191560,1755604483500,80.21,-71.97,-77.05,779,910,873,371,917,33.333333333333336,-0.987,-0.167,0.052
191589,1755604483529,80.21,-72.06,-77.1,779,904,882,430,921,34.48275862068966,-0.986,-0.165,0.049
191619,1755604483559,80.19,-72.12,-77.14,780,910,877,410,923,33.333333333333336,-0.989,-0.165,0.049
191648,1755604483588,80.13,-72.11,-77.15,785,913,856,348,918,34.48275862068966,-0.99,-0.167,0.054
191678,1755604483618,80.11,-72.1,-77.17,787,906,871,342,920,33.333333333333336,-0.988,-0.167,0.057
191708,1755604483648,80.11,-72.07,-77.17,779,908,870,398,919,33.333333333333336,-0.99,-0.168,0.058
191737,1755604483677,80.1,-72.06,-77.18,779,904,863,409,920,34.48275862068966,-0.99,-0.167,0.056
191767,1755604483707,80.07,-72.04,-77.19,778,909,862,324,920,33.333333333333336,-0.989,-0.166,0.057
191796,1755604483736,80.04,-72.02,-77.22,780,914,867,303,918,34.48275862068966,-0.988,-0.166,0.055
191826,1755604483766,80.01,-72.03,-77.25,775,909,872,382,918,33.333333333333336,-0.989,-0.168,0.054
191855,1755604483795,80.01,-72.03,-77.26,779,908,873,416,916,34.48275862068966,-0.99,-0.17,0.055
191915,1755604483855,80.05,-71.99,-77.27,778,912,867,291,923,33.333333333333336,-0.989,-0.169,0.062
191944,1755604483884,80.08,-71.93,-77.28,782,902,865,278,915,34.48275862068966,-0.989,-0.169,0.062
191974,1755604483914,80.14,-71.91,-77.29,783,903,859,385,914,33.333333333333336,-0.989,-0.169,0.059
192003,1755604483944,80.16,-71.89,-77.29,779,908,873,395,919,34.48275862068966,-0.989,-0.17,0.058
192033,1755604483973,80.2,-71.85,-77.29,788,903,870,349,924,33.333333333333336,-0.988,-0.168,0.059
192063,1755604484003,80.19,-71.83,-77.3,785,907,868,330,911,33.333333333333336,-0.987,-0.168,0.058
192092,1755604484032,80.22,-71.84,-77.33,778,906,873,392,917,34.48275862068966,-0.987,-0.168,0.055
192122,1755604484062,80.19,-71.86,-77.34,773,904,867,412,925,33.333333333333336,-0.989,-0.168,0.054
192151,1755604484091,80.17,-71.85,-77.36,778,906,871,401,918,34.48275862068966,-0.989,-0.169,0.055
192181,1755604484121,80.19,-71.81,-77.37,785,913,868,332,916,33.333333333333336,-0.988,-0.168,0.058
192211,1755604484151,80.22,-71.78,-77.4,780,904,861,357,923,33.333333333333336,-0.989,-0.169,0.057
192240,1755604484180,80.21,-71.77,-77.4,786,906,861,423,915,34.48275862068966,-0.991,-0.17,0.053
192270,1755604484210,80.19,-71.78,-77.4,784,907,865,427,929,33.333333333333336,-0.987,-0.168,0.053
192300,1755604484240,80.2,-71.79,-77.44,777,898,867,378,931,33.333333333333336,-0.985,-0.169,0.054
192329,1755604484269,80.18,-71.81,-77.45,778,900,870,362,921,34.48275862068966,-0.988,-0.171,0.054
192359,1755604484299,80.2,-71.82,-77.44,782,904,864,386,915,33.333333333333336,-0.991,-0.171,0.055
192388,1755604484329,80.22,-71.81,-77.42,785,903,868,379,915,34.48275862068966,-0.99,-0.171,0.056
192418,1755604484358,80.21,-71.79,-77.41,785,902,866,374,917,33.333333333333336,-0.986,-0.169,0.055
192448,1755604484387,80.19,-71.81,-77.43,781,901,865,300,919,33.333333333333336,-0.985,-0.168,0.053
192477,1755604484417,80.21,-71.87,-77.46,782,910,855,327,916,34.48275862068966,-0.988,-0.169,0.052
192507,1755604484446,80.21,-71.92,-77.45,783,907,866,422,915,33.333333333333336,-0.991,-0.169,0.054
192536,1755604484476,80.19,-71.88,-77.46,780,906,861,372,917,34.48275862068966,-0.988,-0.167,0.057
192566,1755604484506,80.24,-71.89,-77.49,779,898,866,319,916,33.333333333333336,-0.988,-0.168,0.056
192586,1755604484526,80.25,-71.88,-77.49,775,892,872,402,907,50.0,-0.99,-0.169,0.056
192615,1755604484555,80.27,-71.89,-77.5,781,896,857,339,923,34.48275862068966,-0.989,-0.169,0.053
192645,1755604484585,80.24,-71.91,-77.52,783,916,862,336,935,33.333333333333336,-0.988,-0.168,0.054
192674,1755604484614,80.26,-71.91,-77.54,783,911,869,407,912,34.48275862068966,-0.989,-0.168,0.056
192704,1755604484644,80.24,-71.88,-77.54,785,912,864,421,912,33.333333333333336,-0.989,-0.169,0.057
192734,1755604484674,80.26,-71.87,-77.56,779,899,885,362,928,33.333333333333336,-0.989,-0.169,0.054
192764,1755604484704,80.26,-71.89,-77.58,783,905,869,314,913,33.333333333333336,-0.989,-0.168,0.054
192793,1755604484733,80.23,-71.88,-77.59,778,900,872,359,918,34.48275862068966,-0.988,-0.17,0.055
192823,1755604484763,80.25,-71.89,-77.6,784,914,861,434,912,33.333333333333336,-0.988,-0.169,0.054
192852,1755604484793,80.25,-71.9,-77.61,782,909,872,419,918,34.48275862068966,-0.989,-0.169,0.054
192882,1755604484822,80.24,-71.88,-77.63,782,909,872,356,910,33.333333333333336,-0.989,-0.169,0.055
192912,1755604484852,80.23,-71.86,-77.64,782,912,870,350,922,33.333333333333336,-0.989,-0.168,0.055
192942,1755604484881,80.22,-71.84,-77.63,784,908,867,404,922,33.333333333333336,-0.99,-0.169,0.054
192971,1755604484911,80.27,-71.87,-77.64,787,914,872,414,920,34.48275862068966,-0.99,-0.169,0.052
193000,1755604484941,80.25,-71.92,-77.65,774,907,868,359,911,34.48275862068966,-0.987,-0.169,0.051
193021,1755604484961,80.24,-71.95,-77.66,780,904,869,403,917,47.61904761904762,-0.987,-0.17,0.053
193041,1755604484981,80.21,-71.95,-77.67,783,902,869,367,921,50.0,-0.988,-0.169,0.054
193070,1755604485010,80.22,-71.92,-77.67,783,907,865,395,914,34.48275862068966,-0.988,-0.168,0.055
193100,1755604485040,80.22,-71.91,-77.68,779,911,867,347,911,33.333333333333336,-0.988,-0.168,0.056
193120,1755604485060,80.23,-71.9,-77.68,782,902,870,411,922,50.0,-0.987,-0.169,0.054
193149,1755604485090,80.2,-71.91,-77.68,777,918,864,347,918,34.48275862068966,-0.986,-0.169,0.052
193179,1755604485119,80.2,-71.96,-77.7,781,905,869,336,912,33.333333333333336,-0.987,-0.169,0.053
193209,1755604485149,80.19,-71.96,-77.71,783,906,868,386,913,33.333333333333336,-0.987,-0.169,0.054
193239,1755604485179,80.2,-71.97,-77.71,778,903,873,426,923,33.333333333333336,-0.988,-0.168,0.055
193268,1755604485208,80.23,-71.98,-77.73,781,904,874,381,922,34.48275862068966,-0.988,-0.168,0.056
193298,1755604485238,80.22,-71.95,-77.74,781,904,873,317,913,33.333333333333336,-0.988,-0.169,0.055
193327,1755604485268,80.23,-71.95,-77.75,773,901,867,337,921,34.48275862068966,-0.989,-0.17,0.054
193357,1755604485297,80.22,-71.97,-77.75,776,901,865,428,914,33.333333333333336,-0.987,-0.169,0.053
193387,1755604485327,80.22,-71.97,-77.77,778,905,869,425,909,33.333333333333336,-0.986,-0.168,0.053
193416,1755604485356,80.25,-71.98,-77.8,780,905,867,346,920,34.48275862068966,-0.988,-0.168,0.056
193446,1755604485386,80.24,-71.95,-77.82,785,903,869,319,918,33.333333333333336,-0.989,-0.168,0.056
193476,1755604485416,80.24,-71.92,-77.82,789,901,863,363,920,33.333333333333336,-0.988,-0.169,0.055
193505,1755604485445,80.25,-71.94,-77.84,777,902,876,424,912,34.48275862068966,-0.988,-0.17,0.052
193535,1755604485475,80.25,-72.02,-77.86,778,904,876,389,913,33.333333333333336,-0.988,-0.17,0.051
193564,1755604485504,80.25,-72.05,-77.88,784,905,871,278,918,34.48275862068966,-0.987,-0.169,0.052
193594,1755604485534,80.23,-72.05,-77.89,784,903,866,341,920,33.333333333333336,-0.988,-0.169,0.053
193623,1755604485563,80.24,-72.03,-77.89,783,911,855,405,917,34.48275862068966,-0.989,-0.169,0.055
193653,1755604485593,80.27,-72.02,-77.89,781,905,867,396,916,33.333333333333336,-0.991,-0.17,0.056
193682,1755604485622,80.27,-72.0,-77.88,781,897,860,339,914,34.48275862068966,-0.989,-0.17,0.054
193712,1755604485652,80.28,-72.01,-77.89,781,905,875,316,913,33.333333333333336,-0.987,-0.17,0.052
193742,1755604485681,80.26,-72.05,-77.9,782,908,873,387,921,33.333333333333336,-0.986,-0.17,0.052
193771,1755604485711,80.24,-72.07,-77.92,779,913,865,417,921,34.48275862068966,-0.986,-0.17,0.051
193801,1755604485741,80.23,-72.1,-77.93,788,907,876,383,912,33.333333333333336,-0.989,-0.17,0.053
193830,1755604485770,80.2,-72.07,-77.92,783,909,869,319,915,34.48275862068966,-0.987,-0.169,0.054
193860,1755604485800,80.25,-72.07,-77.92,777,915,868,356,909,33.333333333333336,-0.987,-0.17,0.053
193889,1755604485830,80.24,-72.11,-77.93,784,903,871,424,920,34.48275862068966,-0.986,-0.171,0.052
193919,1755604485860,80.22,-72.13,-77.95,785,905,869,417,917,33.333333333333336,-0.986,-0.17,0.052
193940,1755604485880,80.2,-72.15,-77.96,784,903,864,398,912,47.61904761904762,-0.988,-0.169,0.052
193970,1755604485910,80.2,-72.15,-77.96,779,911,868,401,911,33.333333333333336,-0.989,-0.168,0.054
193999,1755604485939,80.19,-72.12,-77.97,778,904,860,336,907,34.48275862068966,-0.989,-0.167,0.056
194028,1755604485969,80.18,-72.07,-77.97,786,906,870,324,910,34.48275862068966,-0.987,-0.168,0.056
194058,1755604485998,80.19,-72.06,-77.98,781,905,871,384,904,33.333333333333336,-0.987,-0.169,0.054
194088,1755604486028,80.19,-72.1,-77.99,784,903,866,400,914,33.333333333333336,-0.988,-0.17,0.053
194117,1755604486057,80.17,-72.12,-78.01,778,903,868,361,924,34.48275862068966,-0.988,-0.169,0.054
194146,1755604486087,80.19,-72.09,-78.02,787,906,880,330,917,34.48275862068966,-0.989,-0.169,0.057
194176,1755604486116,80.2,-72.04,-78.01,783,907,875,351,920,33.333333333333336,-0.99,-0.168,0.057
194206,1755604486145,80.21,-72.01,-78.02,781,904,873,406,913,33.333333333333336,-0.988,-0.168,0.057
194235,1755604486175,80.21,-72.0,-78.03,780,897,865,405,915,34.48275862068966,-0.989,-0.169,0.055
194264,1755604486205,80.19,-71.98,-78.03,777,904,865,338,921,34.48275862068966,-0.988,-0.168,0.055
194294,1755604486234,80.19,-71.98,-78.06,781,894,856,347,911,33.333333333333336,-0.987,-0.168,0.055
194324,1755604486264,80.19,-71.94,-78.06,776,899,861,398,920,33.333333333333336,-0.988,-0.168,0.056
194353,1755604486293,80.22,-71.92,-78.06,788,903,871,412,920,34.48275862068966,-0.99,-0.168,0.056
194383,1755604486323,80.21,-71.93,-78.07,774,910,869,367,917,33.333333333333336,-0.989,-0.169,0.056
194413,1755604486353,80.19,-71.91,-78.07,781,905,865,332,917,33.333333333333336,-0.988,-0.17,0.056
194442,1755604486382,80.17,-71.88,-78.06,786,905,870,384,922,34.48275862068966,-0.989,-0.17,0.055
194471,1755604486412,80.21,-71.9,-78.06,781,904,867,425,918,34.48275862068966,-0.99,-0.169,0.057
194501,1755604486441,80.22,-71.88,-78.07,777,898,867,382,917,33.333333333333336,-0.986,-0.168,0.058
194530,1755604486470,80.21,-71.85,-78.09,781,913,869,323,919,34.48275862068966,-0.987,-0.168,0.056
194560,1755604486500,80.19,-71.88,-78.1,780,913,870,356,908,33.333333333333336,-0.989,-0.168,0.055
194590,1755604486530,80.19,-71.89,-78.11,779,898,863,418,911,33.333333333333336,-0.989,-0.168,0.055
194619,1755604486559,80.2,-71.88,-78.12,781,897,867,406,911,34.48275862068966,-0.988,-0.169,0.056
194649,1755604486589,80.19,-71.88,-78.13,786,900,866,329,921,33.333333333333336,-0.988,-0.169,0.056
194678,1755604486618,80.18,-71.87,-78.14,781,909,876,334,917,34.48275862068966,-0.989,-0.169,0.055
194708,1755604486648,80.18,-71.89,-78.15,780,905,871,409,919,33.333333333333336,-0.99,-0.168,0.057
194737,1755604486677,80.19,-71.85,-78.15,791,902,868,417,917,34.48275862068966,-0.988,-0.167,0.058
194767,1755604486707,80.19,-71.81,-78.17,783,904,863,365,920,33.333333333333336,-0.987,-0.167,0.058
194797,1755604486737,80.17,-71.81,-78.19,786,903,860,341,921,33.333333333333336,-0.987,-0.168,0.055
194827,1755604486767,80.17,-71.83,-78.21,786,909,877,354,910,33.333333333333336,-0.989,-0.168,0.053
194856,1755604486796,80.16,-71.85,-78.21,779,913,864,419,921,34.48275862068966,-0.988,-0.168,0.053
194885,1755604486826,80.14,-71.84,-78.23,781,909,864,416,916,34.48275862068966,-0.987,-0.167,0.056
194915,1755604486856,80.14,-71.82,-78.26,787,904,867,334,919,33.333333333333336,-0.988,-0.168,0.057
194945,1755604486885,80.13,-71.83,-78.27,784,907,865,332,913,33.333333333333336,-0.99,-0.169,0.056
194975,1755604486915,80.14,-71.82,-78.27,778,912,860,393,916,33.333333333333336,-0.988,-0.169,0.055
195004,1755604486944,80.15,-71.81,-78.29,778,905,864,424,921,34.48275862068966,-0.986,-0.168,0.055
195034,1755604486974,80.16,-71.83,-78.32,778,907,886,388,920,33.333333333333336,-0.987,-0.168,0.055
195063,1755604487003,80.15,-71.84,-78.33,780,900,856,321,915,34.48275862068966,-0.988,-0.168,0.055
195093,1755604487033,80.16,-71.84,-78.35,782,906,870,334,915,33.333333333333336,-0.989,-0.168,0.057
195122,1755604487062,80.16,-71.82,-78.35,777,905,864,426,915,34.48275862068966,-0.991,-0.169,0.057
195152,1755604487092,80.18,-71.77,-78.36,778,911,871,393,916,33.333333333333336,-0.989,-0.169,0.057
195182,1755604487122,80.2,-71.75,-78.37,782,904,870,357,926,33.333333333333336,-0.988,-0.169,0.058
195211,1755604487152,80.21,-71.73,-78.38,778,906,872,348,920,34.48275862068966,-0.988,-0.17,0.058
195241,1755604487181,80.21,-71.75,-78.39,776,904,859,412,916,33.333333333333336,-0.988,-0.17,0.055
195271,1755604487211,80.24,-71.78,-78.39,781,901,864,436,916,33.333333333333336,-0.99,-0.17,0.055
195300,1755604487240,80.24,-71.8,-78.39,776,905,870,379,915,34.48275862068966,-0.989,-0.17,0.056
195330,1755604487270,80.25,-71.82,-78.4,781,909,864,324,914,33.333333333333336,-0.988,-0.169,0.057
195359,1755604487300,80.29,-71.84,-78.42,777,912,875,341,914,34.48275862068966,-0.989,-0.17,0.059
195389,1755604487329,80.3,-72.0,-78.42,780,906,869,418,917,33.333333333333336,-0.989,-0.172,0.057
195419,1755604487359,80.37,-72.06,-78.43,786,901,864,414,909,33.333333333333336,-0.989,-0.171,0.056
