timestamp_ms,recv_timestamp_ms,pitch,roll,yaw,flex1,flex2,flex3,flex4,flex5,sampling_hz,accel_x,accel_y,accel_z
169259,1755604464245,79.9,-86.98,-69.97,788,912,877,406,922,34.48275862068966,-0.988,-0.178,0.012
169289,1755604464247,79.87,-86.98,-69.98,778,922,879,353,915,33.333333333333336,-0.994,-0.177,0.015
169318,1755604464250,79.84,-86.94,-69.98,777,912,890,336,914,34.48275862068966,-0.993,-0.179,0.018
169338,1755604464252,79.82,-86.86,-69.97,783,908,875,388,912,50.0,-0.992,-0.183,0.018
169368,1755604464254,79.88,-86.82,-69.95,785,916,872,357,921,33.333333333333336,-0.989,-0.184,0.018
169398,1755604464256,79.88,-86.75,-69.96,778,914,880,387,921,33.333333333333336,-0.983,-0.18,0.021
169427,1755604464258,79.92,-86.68,-70.01,776,918,873,439,920,34.48275862068966,-0.983,-0.179,0.018
169457,1755604464261,79.93,-86.68,-70.03,781,904,887,398,918,33.333333333333336,-0.994,-0.182,0.014
169486,1755604464263,79.97,-86.71,-70.01,786,907,866,341,920,34.48275862068966,-0.995,-0.182,0.015
169516,1755604464265,79.99,-86.65,-69.99,790,914,879,351,920,33.333333333333336,-0.987,-0.181,0.02
169536,1755604464267,80.01,-86.58,-69.99,777,910,877,371,909,50.0,-0.981,-0.18,0.021
169566,1755604464269,80.0,-86.52,-70.02,786,909,870,356,930,33.333333333333336,-0.982,-0.177,0.019
169596,1755604464271,79.96,-86.48,-70.04,785,923,866,432,924,33.333333333333336,-0.986,-0.177,0.016
169625,1755604464273,79.91,-86.45,-70.03,786,908,872,414,925,34.48275862068966,-0.989,-0.177,0.015
169655,1755604464275,79.92,-86.42,-70.03,775,902,868,350,927,33.333333333333336,-0.99,-0.176,0.019
169685,1755604464277,79.92,-86.34,-70.03,776,904,884,335,913,33.333333333333336,-0.987,-0.176,0.022
169714,1755604464279,79.9,-86.26,-70.03,784,910,885,381,926,34.48275862068966,-0.987,-0.179,0.02
169744,1755604464281,79.87,-86.24,-70.01,780,910,878,378,923,33.333333333333336,-0.992,-0.183,0.015
169774,1755604464283,79.89,-86.26,-69.96,785,919,870,378,922,33.333333333333336,-0.993,-0.183,0.013
169803,1755604464286,79.9,-86.28,-69.92,783,909,882,316,918,34.48275862068966,-0.99,-0.182,0.015
169833,1755604464288,79.95,-86.29,-69.91,783,907,879,339,926,33.333333333333336,-0.988,-0.182,0.016
169862,1755604464290,80.06,-86.27,-69.9,780,912,876,424,922,34.48275862068966,-0.983,-0.178,0.019
169892,1755604464293,80.08,-86.18,-69.95,777,914,882,414,922,33.333333333333336,-0.981,-0.176,0.022
169921,1755604464295,80.09,-86.09,-69.98,779,918,871,339,921,34.48275862068966,-0.986,-0.173,0.019
169951,1755604464297,80.08,-86.05,-70.01,778,905,873,327,921,33.333333333333336,-0.993,-0.17,0.017
169981,1755604464299,80.04,-85.96,-70.03,777,915,880,395,921,33.333333333333336,-0.991,-0.17,0.018
170010,1755604464301,80.07,-85.87,-70.05,785,909,870,444,923,34.48275862068966,-0.989,-0.175,0.017
170040,1755604464303,80.08,-85.86,-70.07,785,916,871,400,924,33.333333333333336,-0.989,-0.179,0.012
170070,1755604464305,80.07,-85.86,-70.08,780,913,876,322,928,33.333333333333336,-0.988,-0.176,0.015
170100,1755604464308,80.04,-85.82,-70.12,777,908,880,333,922,33.333333333333336,-0.986,-0.175,0.017
170130,1755604464310,80.05,-85.82,-70.15,785,908,874,411,920,33.333333333333336,-0.989,-0.178,0.012
170189,1755604464314,80.01,-85.86,-70.14,783,910,869,358,915,33.333333333333336,-0.989,-0.18,0.014
170219,1755604464316,80.0,-85.83,-70.16,783,911,870,338,920,33.333333333333336,-0.987,-0.178,0.017
170248,1755604464318,80.01,-85.8,-70.18,780,905,871,320,921,34.48275862068966,-0.99,-0.177,0.017
170278,1755604464320,79.99,-85.76,-70.18,781,915,875,418,921,33.333333333333336,-0.991,-0.178,0.015
170307,1755604464322,80.01,-85.78,-70.18,787,913,881,395,921,34.48275862068966,-0.991,-0.179,0.014
170337,1755604464324,80.0,-85.77,-70.18,783,915,866,338,922,33.333333333333336,-0.987,-0.177,0.015
170366,1755604464326,80.02,-85.76,-70.22,780,915,880,336,916,34.48275862068966,-0.985,-0.176,0.016
170387,1755604464328,80.01,-85.74,-70.25,785,904,882,377,922,47.61904761904762,-0.986,-0.177,0.015
170446,1755604464332,79.98,-85.82,-70.29,781,906,877,448,923,33.333333333333336,-0.99,-0.178,0.015
170475,1755604464334,79.95,-85.77,-70.3,779,908,881,429,924,34.48275862068966,-0.988,-0.178,0.018
170505,1755604464336,79.96,-85.72,-70.33,782,908,870,364,915,33.333333333333336,-0.986,-0.178,0.018
170535,1755604464338,79.95,-85.72,-70.34,782,909,873,345,920,33.333333333333336,-0.99,-0.18,0.013
170564,1755604464341,79.92,-85.73,-70.33,779,914,866,375,916,34.48275862068966,-0.99,-0.18,0.014
170594,1755604464343,79.74,-85.66,-70.27,782,913,871,441,915,33.333333333333336,-0.984,-0.179,0.015
170624,1755604464345,79.79,-85.64,-70.29,775,909,875,402,919,33.333333333333336,-0.988,-0.179,0.016
170653,1755604464346,79.81,-85.64,-70.28,780,905,880,331,919,34.48275862068966,-0.988,-0.178,0.019
170683,1755604464349,79.81,-85.56,-70.28,785,909,874,352,923,33.333333333333336,-0.985,-0.177,0.022
170713,1755604464350,79.83,-85.54,-70.31,781,909,874,402,920,33.333333333333336,-0.985,-0.177,0.021
170742,1755604464353,79.77,-85.51,-70.33,777,918,879,405,920,34.48275862068966,-0.988,-0.176,0.022
170772,1755604464355,79.7,-85.41,-70.33,783,908,869,362,917,33.333333333333336,-0.99,-0.176,0.023
170801,1755604464357,79.73,-85.31,-70.33,779,922,876,343,915,34.48275862068966,-0.991,-0.176,0.022
170831,1755604464358,79.74,-85.29,-70.35,784,910,882,336,926,33.333333333333336,-0.989,-0.177,0.016
170861,1755604464360,79.67,-85.3,-70.36,775,911,860,405,920,33.333333333333336,-0.989,-0.179,0.012
170891,1755604464362,79.61,-85.33,-70.36,777,914,880,360,918,33.333333333333336,-0.99,-0.18,0.016
170920,1755604464365,79.6,-85.31,-70.37,783,903,878,330,925,34.48275862068966,-0.988,-0.179,0.023
170950,1755604464367,79.59,-85.19,-70.37,777,913,869,329,933,33.333333333333336,-0.986,-0.178,0.03
170979,1755604464369,79.61,-85.05,-70.37,780,912,882,394,912,34.48275862068966,-0.99,-0.18,0.029
171009,1755604464372,79.63,-84.98,-70.34,781,919,867,409,921,33.333333333333336,-0.99,-0.179,0.024
171068,1755604464376,79.65,-84.87,-70.41,782,909,863,321,920,33.333333333333336,-0.982,-0.172,0.027
171097,1755604464378,79.63,-84.79,-70.47,783,913,876,353,926,34.48275862068966,-0.985,-0.173,0.027
171127,1755604464380,79.63,-84.71,-70.49,782,909,871,417,915,33.333333333333336,-0.99,-0.177,0.026
171156,1755604464382,79.64,-84.65,-70.48,781,914,879,397,925,34.48275862068966,-0.993,-0.179,0.027
171186,1755604464384,79.66,-84.57,-70.47,780,915,876,326,917,33.333333333333336,-0.99,-0.179,0.028
171216,1755604464386,79.66,-84.48,-70.48,780,911,876,335,912,33.333333333333336,-0.985,-0.178,0.026
171246,1755604464388,79.67,-84.42,-70.5,779,907,876,413,926,33.333333333333336,-0.987,-0.178,0.024
171276,1755604464390,79.64,-84.39,-70.52,783,916,872,406,930,33.333333333333336,-0.988,-0.176,0.023
171335,1755604464394,79.72,-84.33,-70.6,776,915,867,316,930,33.333333333333336,-0.989,-0.177,0.027
171364,1755604464396,79.74,-84.27,-70.62,780,916,871,356,916,34.48275862068966,-0.99,-0.18,0.025
171394,1755604464398,79.78,-84.21,-70.62,780,911,875,421,924,33.333333333333336,-0.989,-0.18,0.026
171424,1755604464400,79.78,-84.14,-70.62,782,913,872,392,923,33.333333333333336,-0.989,-0.18,0.028
171453,1755604464402,79.81,-84.07,-70.63,784,920,876,334,912,34.48275862068966,-0.989,-0.181,0.025
171483,1755604464404,79.8,-84.03,-70.62,779,917,871,336,914,33.333333333333336,-0.989,-0.181,0.024
171512,1755604464406,79.81,-83.99,-70.62,778,895,868,406,920,34.48275862068966,-0.987,-0.18,0.023
171542,1755604464407,79.85,-83.96,-70.62,776,913,872,417,927,33.333333333333336,-0.988,-0.18,0.024
171572,1755604464409,79.85,-83.94,-70.62,778,910,867,368,917,33.333333333333336,-0.988,-0.179,0.024
171660,1755604464416,79.91,-83.88,-70.71,784,915,876,416,909,34.48275862068966,-0.987,-0.179,0.027
171690,1755604464418,79.88,-83.84,-70.73,783,914,872,398,922,33.333333333333336,-0.988,-0.18,0.025
171720,1755604464420,79.87,-83.83,-70.73,781,910,871,335,930,33.333333333333336,-0.989,-0.181,0.022
171740,1755604464422,79.89,-83.85,-70.73,782,909,868,420,916,50.0,-0.992,-0.181,0.024
171769,1755604464424,79.89,-83.77,-70.7,780,910,874,340,910,34.48275862068966,-0.99,-0.179,0.027
171799,1755604464426,79.91,-83.71,-70.68,787,915,873,348,924,33.333333333333336,-0.991,-0.179,0.027
171829,1755604464428,80.38,-83.68,-70.69,783,912,873,418,916,33.333333333333336,-0.989,-0.178,0.026
171858,1755604464430,80.35,-83.64,-70.68,782,915,875,413,930,34.48275862068966,-0.987,-0.178,0.025
171888,1755604464432,80.35,-83.6,-70.69,781,909,874,355,916,33.333333333333336,-0.988,-0.178,0.025
171918,1755604464434,80.34,-83.58,-70.7,783,911,870,337,921,33.333333333333336,-0.987,-0.177,0.025
171948,1755604464436,80.36,-83.56,-70.72,782,912,876,328,914,33.333333333333336,-0.989,-0.177,0.027
171977,1755604464438,80.36,-83.49,-70.72,786,914,868,428,922,34.48275862068966,-0.989,-0.177,0.028
172007,1755604464440,80.37,-83.43,-70.73,783,902,871,404,922,33.333333333333336,-0.988,-0.177,0.027
172036,1755604464442,80.36,-83.37,-70.73,780,919,879,342,920,34.48275862068966,-0.988,-0.177,0.024
172057,1755604464444,80.36,-83.35,-70.74,784,906,869,426,916,47.61904761904762,-0.988,-0.178,0.022
172086,1755604464447,80.35,-83.33,-70.76,779,911,873,331,926,34.48275862068966,-0.987,-0.177,0.023
172116,1755604464449,80.32,-83.26,-70.77,781,917,871,346,917,33.333333333333336,-0.988,-0.177,0.026
172145,1755604464451,80.32,-83.18,-70.78,783,913,878,415,923,34.48275862068966,-0.987,-0.177,0.025
172175,1755604464453,80.33,-83.14,-70.8,781,917,881,437,916,33.333333333333336,-0.986,-0.176,0.025
172204,1755604464455,80.32,-83.09,-70.83,786,907,870,360,922,34.48275862068966,-0.986,-0.176,0.024
172234,1755604464457,80.29,-83.08,-70.86,780,909,873,329,925,33.333333333333336,-0.987,-0.177,0.022
172264,1755604464459,80.28,-83.09,-70.89,782,914,872,359,928,33.333333333333336,-0.986,-0.178,0.021
172293,1755604464460,80.23,-83.08,-70.91,782,917,872,430,920,34.48275862068966,-0.988,-0.179,0.023
172323,1755604464463,80.24,-83.03,-70.93,777,905,870,407,924,33.333333333333336,-0.988,-0.18,0.025
172353,1755604464465,80.23,-83.04,-70.95,778,921,873,338,924,33.333333333333336,-0.99,-0.18,0.025
172383,1755604464467,80.23,-83.0,-70.95,774,906,878,337,912,33.333333333333336,-0.99,-0.179,0.026
172412,1755604464469,80.24,-82.97,-70.97,781,916,875,413,918,34.48275862068966,-0.989,-0.18,0.025
172442,1755604464471,80.23,-82.95,-70.97,781,916,883,427,913,33.333333333333336,-0.989,-0.181,0.023
172472,1755604464473,80.23,-82.93,-70.97,777,905,886,358,910,33.333333333333336,-0.989,-0.181,0.025
172501,1755604464475,80.19,-82.9,-70.98,779,912,881,333,918,34.48275862068966,-0.987,-0.18,0.026
172531,1755604464477,80.23,-82.88,-70.99,783,905,874,373,924,33.333333333333336,-0.989,-0.18,0.027
172561,1755604464500,80.2,-82.84,-70.99,784,912,883,422,918,33.333333333333336,-0.988,-0.18,0.026
172620,1755604464559,80.22,-82.79,-71.04,784,906,876,332,926,33.333333333333336,-0.986,-0.178,0.026
172649,1755604464589,80.17,-82.78,-71.08,784,912,877,343,925,34.48275862068966,-0.987,-0.177,0.025
172679,1755604464619,80.15,-82.73,-71.1,785,909,879,394,923,33.333333333333336,-0.987,-0.178,0.026
172708,1755604464648,80.13,-82.67,-71.11,780,921,879,406,920,34.48275862068966,-0.988,-0.18,0.027
172738,1755604464678,80.13,-82.65,-71.12,773,914,877,341,922,33.333333333333336,-0.99,-0.181,0.026
172768,1755604464708,80.13,-82.63,-71.13,782,915,883,326,921,33.333333333333336,-0.987,-0.181,0.027
172797,1755604464737,80.13,-82.58,-71.15,781,918,888,327,918,34.48275862068966,-0.986,-0.18,0.027
172827,1755604464766,80.14,-82.55,-71.17,782,914,882,419,929,33.333333333333336,-0.988,-0.181,0.026
172856,1755604464796,80.12,-82.52,-71.16,776,909,872,408,912,34.48275862068966,-0.988,-0.181,0.025
172886,1755604464825,80.13,-82.5,-71.16,779,916,868,334,922,33.333333333333336,-0.988,-0.18,0.026
172915,1755604464855,80.13,-82.48,-71.17,779,906,869,339,912,34.48275862068966,-0.987,-0.18,0.027
172945,1755604464885,80.1,-82.43,-71.17,780,907,867,415,928,33.333333333333336,-0.986,-0.18,0.027
172965,1755604464905,80.11,-82.42,-71.18,786,911,872,333,916,50.0,-0.988,-0.18,0.026
172994,1755604464934,80.13,-82.42,-71.18,778,914,886,416,919,34.48275862068966,-0.987,-0.179,0.026
173024,1755604464964,80.13,-82.42,-71.22,785,909,875,423,924,33.333333333333336,-0.983,-0.178,0.025
173054,1755604464993,80.11,-82.4,-71.25,783,906,873,355,925,33.333333333333336,-0.987,-0.179,0.027
173083,1755604465023,80.09,-82.34,-71.27,782,917,867,337,929,34.48275862068966,-0.991,-0.179,0.028
173113,1755604465052,80.05,-82.3,-71.27,775,913,875,402,913,33.333333333333336,-0.989,-0.18,0.027
173142,1755604465082,80.08,-82.28,-71.28,784,901,874,429,915,34.48275862068966,-0.986,-0.182,0.026
173172,1755604465111,80.09,-82.27,-71.29,774,907,879,371,925,33.333333333333336,-0.987,-0.183,0.027
173201,1755604465141,80.09,-82.25,-71.3,782,906,867,322,919,34.48275862068966,-0.988,-0.183,0.027
173231,1755604465170,80.1,-82.21,-71.31,773,914,892,364,919,33.333333333333336,-0.987,-0.182,0.028
173260,1755604465200,80.11,-82.17,-71.32,782,916,869,436,923,34.48275862068966,-0.987,-0.18,0.028
173290,1755604465230,80.09,-82.13,-71.33,786,908,887,405,914,33.333333333333336,-0.987,-0.18,0.028
173319,1755604465259,80.11,-82.1,-71.34,784,920,877,330,923,34.48275862068966,-0.987,-0.18,0.028
173349,1755604465289,80.07,-82.08,-71.34,782,907,877,337,925,33.333333333333336,-0.988,-0.18,0.026
173379,1755604465318,80.08,-82.08,-71.35,781,913,866,411,918,33.333333333333336,-0.988,-0.181,0.025
173408,1755604465348,80.06,-82.08,-71.36,781,909,884,407,913,34.48275862068966,-0.987,-0.18,0.029
173438,1755604465378,80.05,-82.04,-71.38,783,912,872,366,925,33.333333333333336,-0.987,-0.181,0.029
173468,1755604465408,80.06,-82.06,-71.38,782,904,871,334,914,33.333333333333336,-0.989,-0.182,0.026
173497,1755604465437,80.03,-82.08,-71.38,781,910,876,359,921,34.48275862068966,-0.988,-0.181,0.026
173527,1755604465467,80.02,-82.06,-71.4,778,909,872,443,921,33.333333333333336,-0.986,-0.181,0.028
173547,1755604465487,79.99,-82.04,-71.41,781,905,870,319,923,50.0,-0.985,-0.181,0.029
173576,1755604465516,80.02,-82.03,-71.42,782,913,872,406,910,34.48275862068966,-0.988,-0.181,0.03
173606,1755604465546,80.03,-81.99,-71.41,777,918,878,382,915,33.333333333333336,-0.989,-0.18,0.031
173635,1755604465575,80.04,-81.92,-71.41,782,902,869,310,922,34.48275862068966,-0.988,-0.179,0.031
173665,1755604465604,80.05,-81.87,-71.41,779,914,870,348,910,33.333333333333336,-0.986,-0.179,0.03
173694,1755604465634,80.05,-81.83,-71.43,781,914,867,418,920,34.48275862068966,-0.985,-0.179,0.029
173724,1755604465663,80.05,-81.81,-71.46,779,912,880,396,917,33.333333333333336,-0.985,-0.179,0.026
173753,1755604465693,80.04,-81.81,-71.48,782,914,878,326,918,34.48275862068966,-0.987,-0.181,0.026
173783,1755604465723,80.06,-81.83,-71.5,775,903,877,338,919,33.333333333333336,-0.989,-0.182,0.025
173812,1755604465752,80.05,-81.8,-71.5,777,912,853,416,921,34.48275862068966,-0.988,-0.182,0.027
173842,1755604465782,80.08,-81.76,-71.49,780,919,873,420,915,33.333333333333336,-0.987,-0.181,0.026
173872,1755604465812,80.09,-81.76,-71.51,787,903,881,378,920,33.333333333333336,-0.987,-0.181,0.025
173901,1755604465841,80.08,-81.76,-71.52,785,909,878,332,908,34.48275862068966,-0.986,-0.181,0.024
173931,1755604465871,80.09,-81.76,-71.55,782,913,868,356,909,33.333333333333336,-0.985,-0.18,0.025
173960,1755604465900,80.06,-81.75,-71.58,782,917,869,423,919,34.48275862068966,-0.985,-0.18,0.027
173990,1755604465930,80.09,-81.72,-71.61,782,907,868,405,916,33.333333333333336,-0.988,-0.18,0.027
174020,1755604465960,80.09,-81.74,-71.63,776,917,870,332,924,33.333333333333336,-0.988,-0.181,0.026
174049,1755604465989,80.09,-81.72,-71.63,781,907,863,336,921,34.48275862068966,-0.989,-0.182,0.026
174079,1755604466019,80.05,-81.69,-71.63,778,904,878,397,921,33.333333333333336,-0.988,-0.182,0.026
174108,1755604466048,80.02,-81.67,-71.63,780,915,863,431,917,34.48275862068966,-0.988,-0.181,0.027
174138,1755604466078,80.04,-81.65,-71.63,782,910,872,371,924,33.333333333333336,-0.989,-0.181,0.028
174168,1755604466107,80.04,-81.63,-71.61,781,902,887,314,927,33.333333333333336,-0.99,-0.181,0.028
174197,1755604466137,80.06,-81.62,-71.61,780,912,860,368,912,34.48275862068966,-0.988,-0.182,0.025
174227,1755604466167,80.02,-81.64,-71.61,786,910,866,439,916,33.333333333333336,-0.987,-0.181,0.027
174256,1755604466196,80.01,-81.62,-71.62,781,914,873,414,919,34.48275862068966,-0.985,-0.18,0.027
174286,1755604466226,80.02,-81.63,-71.65,784,919,870,299,922,33.333333333333336,-0.987,-0.181,0.026
174315,1755604466255,79.96,-81.63,-71.65,781,904,870,323,918,34.48275862068966,-0.989,-0.181,0.026
174345,1755604466285,79.89,-81.61,-71.65,781,913,870,422,918,33.333333333333336,-0.989,-0.181,0.028
174374,1755604466314,79.83,-81.55,-71.63,784,923,887,423,910,34.48275862068966,-0.987,-0.181,0.03
174404,1755604466344,79.85,-81.5,-71.62,781,911,886,370,922,33.333333333333336,-0.988,-0.181,0.031
174434,1755604466374,79.88,-81.46,-71.63,780,906,878,291,925,33.333333333333336,-0.987,-0.179,0.031
174464,1755604466403,79.88,-81.38,-71.63,779,908,885,357,910,33.333333333333336,-0.986,-0.179,0.032
174493,1755604466433,79.83,-81.34,-71.65,780,919,865,423,918,34.48275862068966,-0.984,-0.18,0.028
174523,1755604466462,79.74,-81.37,-71.65,787,905,877,408,918,33.333333333333336,-0.988,-0.182,0.025
174552,1755604466492,79.56,-81.39,-71.62,778,914,871,319,919,34.48275862068966,-0.99,-0.181,0.026
174582,1755604466522,79.41,-81.35,-71.61,783,913,877,343,922,33.333333333333336,-0.987,-0.178,0.03
174611,1755604466551,79.25,-81.27,-71.6,779,907,877,419,925,34.48275862068966,-0.988,-0.178,0.035
174641,1755604466581,79.05,-81.15,-71.59,777,915,877,419,915,33.333333333333336,-0.986,-0.179,0.036
174671,1755604466610,79.1,-81.07,-71.61,781,918,879,363,921,33.333333333333336,-0.988,-0.178,0.039
174700,1755604466640,79.13,-81.01,-71.63,782,904,873,340,919,34.48275862068966,-0.987,-0.177,0.044
174730,1755604466670,79.07,-80.88,-71.64,782,927,872,381,931,33.333333333333336,-0.988,-0.176,0.048
174759,1755604466699,78.94,-80.73,-71.65,782,909,874,428,921,34.48275862068966,-0.98,-0.177,0.043
174789,1755604466728,79.03,-80.68,-71.68,778,904,876,400,922,33.333333333333336,-0.988,-0.179,0.043
174818,1755604466758,79.02,-80.66,-71.66,774,913,862,325,919,34.48275862068966,-0.991,-0.179,0.046
174848,1755604466788,78.95,-80.48,-71.61,778,898,867,349,912,33.333333333333336,-0.99,-0.177,0.049
174878,1755604466817,79.02,-80.38,-71.6,778,911,870,415,921,33.333333333333336,-0.989,-0.176,0.05
174907,1755604466847,79.06,-80.26,-71.6,782,916,867,415,924,34.48275862068966,-0.99,-0.177,0.053
174937,1755604466876,79.13,-80.08,-71.58,780,911,873,337,918,33.333333333333336,-0.99,-0.178,0.052
174966,1755604466907,79.08,-79.94,-71.57,784,911,882,334,917,34.48275862068966,-0.988,-0.178,0.05
174986,1755604466926,79.08,-79.82,-71.58,783,914,866,395,917,50.0,-0.986,-0.177,0.047
175016,1755604466956,79.08,-79.72,-71.58,778,912,875,348,924,33.333333333333336,-0.987,-0.178,0.048
175046,1755604466986,79.15,-79.64,-71.59,782,909,866,409,913,33.333333333333336,-0.99,-0.177,0.047
175075,1755604467015,79.13,-79.53,-71.57,781,916,866,418,913,34.48275862068966,-0.988,-0.175,0.049
175135,1755604467074,79.2,-79.29,-71.62,785,910,874,336,921,33.333333333333336,-0.987,-0.176,0.049
175164,1755604467104,79.23,-79.21,-71.6,785,917,874,336,924,34.48275862068966,-0.99,-0.178,0.048
175194,1755604467134,79.28,-79.1,-71.59,784,910,868,418,920,33.333333333333336,-0.989,-0.177,0.049
175214,1755604467154,79.27,-79.0,-71.59,783,917,862,302,926,50.0,-0.984,-0.175,0.049
175243,1755604467183,79.33,-78.91,-71.61,782,910,874,408,916,34.48275862068966,-0.985,-0.175,0.049
175273,1755604467213,79.32,-78.85,-71.62,777,903,865,383,936,33.333333333333336,-0.987,-0.175,0.048
175293,1755604467233,79.36,-78.76,-71.63,781,909,865,385,910,50.0,-0.989,-0.175,0.048
175323,1755604467262,79.34,-78.69,-71.62,780,915,879,389,921,33.333333333333336,-0.989,-0.175,0.049
175352,1755604467292,79.38,-78.57,-71.63,778,907,875,326,929,34.48275862068966,-0.985,-0.174,0.051
175382,1755604467322,79.36,-78.47,-71.67,779,905,874,330,921,33.333333333333336,-0.983,-0.173,0.05
175411,1755604467351,79.38,-78.39,-71.73,781,918,873,397,929,34.48275862068966,-0.986,-0.172,0.048
175441,1755604467381,79.41,-78.36,-71.76,779,913,867,412,922,33.333333333333336,-0.99,-0.174,0.047
175470,1755604467410,79.46,-78.31,-71.82,784,906,869,350,916,34.48275862068966,-0.988,-0.161,0.056
175500,1755604467440,79.33,-78.08,-71.95,778,910,867,339,914,33.333333333333336,-0.979,-0.167,0.066
175529,1755604467469,79.32,-77.82,-72.08,778,909,869,384,926,34.48275862068966,-0.984,-0.183,0.054
175559,1755604467499,79.46,-77.74,-72.11,783,918,873,428,917,33.333333333333336,-0.992,-0.191,0.05
175588,1755604467528,79.46,-77.49,-72.05,783,908,875,398,922,34.48275862068966,-0.993,-0.188,0.058
175618,1755604467558,79.4,-77.04,-71.93,778,915,871,321,918,33.333333333333336,-1.0,-0.183,0.061
175648,1755604467587,79.46,-76.74,-71.77,778,911,864,301,918,33.333333333333336,-1.008,-0.178,0.047
175677,1755604467617,79.57,-76.6,-71.71,783,908,860,402,920,34.48275862068966,-0.987,-0.173,0.04
175707,1755604467647,79.56,-76.64,-71.76,790,909,869,392,918,33.333333333333336,-0.973,-0.181,0.031
175736,1755604467676,79.44,-76.83,-71.84,776,913,873,337,914,34.48275862068966,-0.977,-0.187,0.029
175766,1755604467706,79.44,-77.02,-71.87,778,912,862,336,918,33.333333333333336,-0.99,-0.182,0.038
175786,1755604467726,79.37,-77.0,-71.86,781,914,876,374,915,50.0,-0.994,-0.175,0.049
175815,1755604467755,79.36,-76.84,-71.84,783,912,875,344,922,34.48275862068966,-0.993,-0.17,0.054
175845,1755604467784,79.31,-76.75,-71.84,783,910,876,423,917,33.333333333333336,-0.99,-0.173,0.053
175874,1755604467814,79.3,-76.79,-71.86,785,908,867,430,922,34.48275862068966,-0.993,-0.179,0.045
175904,1755604467844,79.25,-76.81,-71.84,784,912,876,354,929,33.333333333333336,-0.991,-0.18,0.044
175933,1755604467873,79.18,-76.77,-71.81,780,909,860,334,917,34.48275862068966,-0.991,-0.183,0.049
175963,1755604467903,79.14,-76.78,-71.75,782,914,868,365,918,33.333333333333336,-0.992,-0.185,0.048
175992,1755604467932,79.11,-76.77,-71.73,780,910,874,434,923,34.48275862068966,-0.984,-0.175,0.06
176022,1755604467962,79.14,-76.61,-71.86,781,911,874,392,927,33.333333333333336,-0.976,-0.169,0.065
176051,1755604467991,79.13,-76.49,-71.93,783,905,879,315,912,34.48275862068966,-0.989,-0.173,0.059
176081,1755604468021,79.13,-76.47,-71.92,787,915,857,337,920,33.333333333333336,-1.0,-0.175,0.054
176110,1755604468050,79.17,-76.35,-71.86,779,906,873,421,918,34.48275862068966,-0.996,-0.173,0.06
176140,1755604468080,79.23,-76.17,-71.84,783,911,874,395,918,33.333333333333336,-0.986,-0.172,0.062
176170,1755604468109,79.26,-76.02,-71.86,776,917,870,339,920,33.333333333333336,-0.984,-0.172,0.06
176199,1755604468139,79.26,-75.96,-71.87,783,906,875,329,924,34.48275862068966,-0.987,-0.173,0.054
176228,1755604468168,79.3,-75.92,-71.86,779,913,867,362,922,34.48275862068966,-0.992,-0.173,0.052
176258,1755604468198,79.34,-75.91,-71.86,779,912,873,392,916,33.333333333333336,-0.991,-0.174,0.053
176288,1755604468227,79.38,-75.84,-71.83,784,914,877,357,923,33.333333333333336,-0.992,-0.176,0.053
176317,1755604468260,79.42,-75.73,-71.77,780,916,876,327,917,34.48275862068966,-0.991,-0.18,0.051
176347,1755604468287,79.45,-75.65,-71.7,787,904,871,357,916,33.333333333333336,-0.987,-0.178,0.051
176376,1755604468316,79.46,-75.59,-71.68,780,908,888,420,924,34.48275862068966,-0.979,-0.169,0.057
176406,1755604468346,79.47,-75.48,-71.73,785,914,874,377,917,33.333333333333336,-0.978,-0.166,0.059
176465,1755604468409,79.61,-75.3,-71.79,780,912,874,330,920,33.333333333333336,-0.993,-0.168,0.049
176495,1755604468435,79.59,-75.23,-71.8,783,918,871,425,926,33.333333333333336,-0.99,-0.166,0.054
176524,1755604468464,79.59,-75.08,-71.81,781,916,866,451,914,34.48275862068966,-0.987,-0.168,0.056
176554,1755604468494,79.63,-75.01,-71.82,786,906,863,373,917,33.333333333333336,-0.99,-0.171,0.05
176584,1755604468523,79.65,-74.99,-71.82,779,906,879,351,920,33.333333333333336,-0.99,-0.17,0.048
176613,1755604468553,79.62,-74.99,-71.85,780,907,876,372,917,34.48275862068966,-0.986,-0.169,0.049
176643,1755604468583,79.59,-74.98,-71.89,785,906,874,448,919,33.333333333333336,-0.987,-0.17,0.052
176663,1755604468603,79.57,-74.93,-71.9,779,918,871,353,916,50.0,-0.992,-0.17,0.054
176693,1755604468633,79.6,-74.88,-71.88,779,907,865,422,921,33.333333333333336,-0.996,-0.172,0.053
176722,1755604468663,79.63,-74.85,-71.83,787,913,868,400,918,34.48275862068966,-0.993,-0.174,0.052
176743,1755604468683,79.63,-74.81,-71.82,786,902,867,387,917,47.61904761904762,-0.981,-0.173,0.051
176772,1755604468714,79.65,-74.81,-71.88,783,915,863,375,914,34.48275862068966,-0.979,-0.171,0.053
176802,1755604468742,79.57,-74.79,-71.93,783,906,864,310,913,33.333333333333336,-0.99,-0.172,0.053
176822,1755604468762,79.54,-74.77,-71.93,780,908,867,402,918,50.0,-1.001,-0.176,0.051
176842,1755604468782,79.57,-74.78,-71.9,782,913,880,406,918,50.0,-1.006,-0.18,0.051
176902,1755604468841,79.6,-74.65,-71.86,785,913,872,332,913,33.333333333333336,-0.983,-0.168,0.058
176961,1755604468901,79.64,-74.6,-71.97,780,909,865,422,923,33.333333333333336,-0.995,-0.172,0.052
176981,1755604468921,79.65,-74.62,-71.97,784,913,885,342,925,50.0,-0.998,-0.172,0.05
177010,1755604468951,79.67,-74.56,-71.96,783,918,884,424,922,34.48275862068966,-0.993,-0.172,0.053
177031,1755604468972,79.67,-74.51,-71.96,778,912,866,336,920,47.61904761904762,-0.989,-0.172,0.054
177051,1755604468991,79.67,-74.49,-71.96,777,911,873,355,918,50.0,-0.99,-0.171,0.054
177081,1755604469022,79.64,-74.47,-71.96,777,903,872,340,921,33.333333333333336,-0.989,-0.17,0.056
177101,1755604469041,79.66,-74.4,-71.96,777,904,872,361,922,50.0,-0.991,-0.171,0.056
177131,1755604469071,79.68,-74.37,-71.94,782,912,875,352,922,33.333333333333336,-0.993,-0.173,0.055
177161,1755604469102,79.68,-74.32,-71.9,786,908,865,420,923,33.333333333333336,-0.989,-0.172,0.056
177182,1755604469122,79.7,-74.27,-71.9,783,908,877,337,932,47.61904761904762,-0.981,-0.168,0.056
177211,1755604469151,79.71,-74.21,-71.96,781,899,871,405,908,34.48275862068966,-0.978,-0.165,0.055
177241,1755604469182,79.66,-74.16,-72.04,786,909,872,419,927,33.333333333333336,-0.983,-0.166,0.054
177261,1755604469202,79.67,-74.13,-72.07,780,901,870,382,916,50.0,-0.994,-0.169,0.055
177291,1755604469231,79.66,-74.06,-72.01,781,915,871,398,921,33.333333333333336,-1.005,-0.175,0.059
177320,1755604469260,79.74,-73.92,-71.9,784,904,867,357,915,34.48275862068966,-1.002,-0.177,0.062
177350,1755604469290,79.83,-73.78,-71.79,791,909,869,315,922,33.333333333333336,-0.989,-0.172,0.062
177380,1755604469320,79.86,-73.67,-71.79,785,916,866,339,918,33.333333333333336,-0.983,-0.165,0.057
177410,1755604469350,79.85,-73.63,-71.83,779,925,868,417,917,33.333333333333336,-0.983,-0.162,0.049
177439,1755604469379,79.83,-73.65,-71.88,775,912,868,410,921,34.48275862068966,-0.986,-0.164,0.045
177469,1755604469409,79.82,-73.68,-71.91,787,903,871,327,906,33.333333333333336,-0.988,-0.165,0.047
177498,1755604469438,79.83,-73.67,-71.93,782,908,869,328,915,34.48275862068966,-0.988,-0.168,0.054
177528,1755604469468,79.86,-73.6,-71.92,785,912,869,405,918,33.333333333333336,-0.986,-0.168,0.058
177558,1755604469498,79.92,-73.56,-71.94,779,914,867,400,913,33.333333333333336,-0.987,-0.165,0.058
177587,1755604469527,79.95,-73.51,-71.97,782,912,869,354,921,34.48275862068966,-0.987,-0.164,0.057
177617,1755604469557,79.97,-73.47,-71.98,776,903,872,330,908,33.333333333333336,-0.99,-0.163,0.054
177646,1755604469587,79.98,-73.44,-72.01,782,909,871,366,919,34.48275862068966,-0.99,-0.165,0.051
177667,1755604469606,79.98,-73.44,-72.02,781,910,873,346,917,47.61904761904762,-0.989,-0.167,0.048
177696,1755604469637,80.05,-73.52,-72.05,784,915,871,382,924,34.48275862068966,-0.989,-0.168,0.047
177717,1755604469656,80.04,-73.55,-72.06,778,929,868,361,918,47.61904761904762,-0.989,-0.17,0.05
177746,1755604469686,80.49,-73.54,-72.05,786,907,865,372,922,34.48275862068966,-0.991,-0.17,0.05
177805,1755604469745,80.53,-73.54,-72.01,780,914,871,389,917,34.48275862068966,-0.991,-0.169,0.05
177835,1755604469775,80.52,-73.54,-72.01,777,907,873,335,912,33.333333333333336,-0.989,-0.167,0.051
177864,1755604469805,80.54,-73.49,-72.0,781,911,877,347,920,34.48275862068966,-0.99,-0.165,0.053
177885,1755604469825,80.59,-73.49,-72.0,776,916,872,373,921,47.61904761904762,-0.989,-0.165,0.052
