timestamp_ms,recv_timestamp_ms,pitch,roll,yaw,flex1,flex2,flex3,flex4,flex5,sampling_hz,accel_x,accel_y,accel_z
177935,1755604473174,80.65,-73.51,-72.04,782,915,868,351,918,33.333333333333336,-0.985,-0.165,0.05
177964,1755604473176,80.67,-73.55,-72.08,780,908,881,351,908,34.48275862068966,-0.983,-0.163,0.048
177994,1755604473178,80.77,-73.6,-72.13,787,910,855,427,921,33.333333333333336,-0.989,-0.165,0.048
178023,1755604473180,80.76,-73.66,-72.13,783,910,879,402,915,34.48275862068966,-0.993,-0.167,0.047
178053,1755604473182,80.77,-73.66,-72.12,788,908,875,326,907,33.333333333333336,-0.989,-0.168,0.046
178082,1755604473185,80.77,-73.69,-72.13,785,911,874,306,919,34.48275862068966,-0.985,-0.165,0.046
178112,1755604473187,80.78,-73.71,-72.15,778,906,853,371,912,33.333333333333336,-0.987,-0.165,0.048
178141,1755604473190,80.78,-73.72,-72.18,779,910,874,421,919,34.48275862068966,-0.991,-0.165,0.046
178171,1755604473193,80.82,-73.73,-72.17,777,912,877,379,918,33.333333333333336,-0.992,-0.168,0.047
178192,1755604473195,80.88,-73.75,-72.17,782,913,886,395,929,47.61904761904762,-0.994,-0.169,0.048
178221,1755604473197,80.9,-73.73,-72.14,774,905,866,370,926,34.48275862068966,-0.991,-0.17,0.048
178251,1755604473199,80.94,-73.7,-72.12,779,903,869,320,915,33.333333333333336,-0.99,-0.17,0.046
178310,1755604473203,80.97,-73.67,-72.06,779,902,876,432,920,33.333333333333336,-0.99,-0.168,0.043
178339,1755604473205,80.98,-73.66,-72.05,782,917,868,409,922,34.48275862068966,-0.986,-0.167,0.043
178369,1755604473207,80.98,-73.68,-72.08,782,915,875,342,936,33.333333333333336,-0.982,-0.166,0.04
178389,1755604473210,80.99,-73.73,-72.11,790,915,865,404,917,50.0,-0.983,-0.166,0.038
178418,1755604473212,81.0,-73.76,-72.12,782,910,871,325,923,34.48275862068966,-0.988,-0.169,0.036
178448,1755604473215,80.97,-73.83,-72.1,787,909,869,330,922,33.333333333333336,-0.995,-0.169,0.038
178477,1755604473218,80.95,-73.87,-72.02,779,905,876,430,915,34.48275862068966,-0.998,-0.167,0.045
178507,1755604473220,80.96,-73.8,-71.95,787,906,873,426,919,33.333333333333336,-0.996,-0.164,0.048
178537,1755604473223,80.99,-73.71,-71.9,784,910,867,372,919,33.333333333333336,-0.989,-0.161,0.044
178567,1755604473225,81.02,-73.71,-71.91,778,916,869,322,918,33.333333333333336,-0.985,-0.16,0.04
178597,1755604473227,81.01,-73.8,-71.94,787,915,870,345,925,33.333333333333336,-0.984,-0.159,0.037
178626,1755604473230,80.93,-73.86,-71.96,787,909,877,418,915,34.48275862068966,-0.989,-0.159,0.036
178655,1755604473232,80.9,-73.95,-71.97,778,916,877,357,921,34.48275862068966,-0.992,-0.16,0.035
178685,1755604473235,80.92,-74.04,-71.96,780,912,851,319,920,33.333333333333336,-0.992,-0.159,0.037
178715,1755604473237,80.89,-74.07,-71.96,779,911,861,336,920,33.333333333333336,-0.988,-0.158,0.041
178735,1755604473240,80.86,-74.05,-71.97,789,915,853,376,915,50.0,-0.983,-0.156,0.044
178765,1755604473241,80.85,-74.03,-72.01,782,908,867,352,918,33.333333333333336,-0.984,-0.157,0.044
178794,1755604473244,80.83,-74.07,-72.06,786,908,873,422,924,34.48275862068966,-0.987,-0.158,0.041
178815,1755604473246,80.8,-74.13,-72.08,784,913,872,330,924,47.61904761904762,-0.989,-0.157,0.04
178845,1755604473248,80.78,-74.15,-72.1,778,913,865,414,925,33.333333333333336,-0.99,-0.157,0.044
178874,1755604473250,80.79,-74.16,-72.13,781,912,873,412,923,34.48275862068966,-0.989,-0.16,0.045
178904,1755604473253,80.88,-74.24,-72.13,778,906,868,374,918,33.333333333333336,-0.987,-0.161,0.043
178933,1755604473255,80.9,-74.28,-72.16,781,910,881,322,928,34.48275862068966,-0.988,-0.161,0.042
178963,1755604473257,80.86,-74.34,-72.19,783,906,873,362,918,33.333333333333336,-0.985,-0.159,0.042
178992,1755604473259,80.95,-74.46,-72.25,780,909,869,429,929,34.48275862068966,-0.988,-0.16,0.043
179022,1755604473261,80.95,-74.51,-72.29,780,911,872,418,914,33.333333333333336,-0.992,-0.163,0.043
179051,1755604473263,80.96,-74.53,-72.31,783,908,858,331,922,34.48275862068966,-0.992,-0.165,0.041
179081,1755604473265,80.94,-74.54,-72.31,781,912,869,357,917,33.333333333333336,-0.992,-0.165,0.043
179111,1755604473267,80.95,-74.55,-72.31,782,911,867,424,924,33.333333333333336,-0.993,-0.166,0.043
179140,1755604473270,80.98,-74.59,-72.31,777,902,878,423,924,34.48275862068966,-0.994,-0.165,0.043
179170,1755604473272,80.95,-74.56,-72.32,784,897,870,350,920,33.333333333333336,-0.991,-0.163,0.043
179199,1755604473274,80.97,-74.58,-72.34,786,908,873,324,927,34.48275862068966,-0.989,-0.163,0.04
179220,1755604473276,80.98,-74.64,-72.36,779,910,872,388,919,47.61904761904762,-0.989,-0.162,0.039
179249,1755604473278,80.95,-74.66,-72.38,782,912,864,349,916,34.48275862068966,-0.989,-0.163,0.041
179279,1755604473280,80.91,-74.68,-72.39,785,909,870,356,921,33.333333333333336,-0.989,-0.163,0.039
179309,1755604473283,80.88,-74.71,-72.41,786,903,873,421,916,33.333333333333336,-0.992,-0.163,0.04
179339,1755604473285,80.9,-74.72,-72.4,786,918,870,412,923,33.333333333333336,-0.993,-0.164,0.044
179368,1755604473288,80.91,-74.7,-72.39,778,899,883,355,915,34.48275862068966,-0.991,-0.165,0.045
179398,1755604473290,80.9,-74.68,-72.39,781,913,860,336,916,33.333333333333336,-0.988,-0.165,0.041
179428,1755604473292,80.89,-74.71,-72.39,776,908,863,392,923,33.333333333333336,-0.988,-0.165,0.039
179457,1755604473294,80.9,-74.79,-72.42,779,910,884,406,919,34.48275862068966,-0.99,-0.163,0.04
179477,1755604473297,80.87,-74.79,-72.42,777,901,860,357,916,50.0,-0.989,-0.161,0.042
179497,1755604473300,80.87,-74.79,-72.45,780,916,876,312,919,50.0,-0.99,-0.16,0.045
179527,1755604473302,80.86,-74.78,-72.48,777,911,868,382,925,33.333333333333336,-0.989,-0.161,0.044
179557,1755604473304,80.86,-74.8,-72.49,785,899,864,381,911,33.333333333333336,-0.989,-0.164,0.043
179586,1755604473307,80.87,-74.82,-72.49,780,918,869,352,923,34.48275862068966,-0.99,-0.165,0.044
179616,1755604473308,80.9,-74.78,-72.48,782,917,870,323,915,33.333333333333336,-0.989,-0.163,0.045
179645,1755604473310,80.87,-74.78,-72.5,788,913,893,376,917,34.48275862068966,-0.985,-0.162,0.041
179675,1755604473312,80.83,-74.8,-72.53,784,919,873,422,925,33.333333333333336,-0.987,-0.163,0.039
179705,1755604473314,80.8,-74.9,-72.56,782,909,868,391,923,33.333333333333336,-0.988,-0.163,0.04
179734,1755604473317,80.78,-74.88,-72.58,783,910,874,338,921,34.48275862068966,-0.989,-0.163,0.045
179763,1755604473318,80.78,-74.81,-72.58,781,906,874,352,917,34.48275862068966,-0.99,-0.164,0.047
179793,1755604473320,80.73,-74.75,-72.58,779,911,876,440,917,33.333333333333336,-0.991,-0.163,0.047
179823,1755604473322,80.77,-74.74,-72.6,781,912,876,405,916,33.333333333333336,-0.991,-0.162,0.045
179852,1755604473325,80.71,-74.7,-72.6,778,912,867,328,926,34.48275862068966,-0.991,-0.162,0.047
179872,1755604473327,80.68,-74.65,-72.61,776,913,874,372,916,50.0,-0.991,-0.163,0.046
179902,1755604473329,80.71,-74.66,-72.61,788,913,871,288,918,33.333333333333336,-0.992,-0.166,0.043
179931,1755604473331,80.77,-74.73,-72.62,787,901,877,295,925,34.48275862068966,-0.991,-0.167,0.042
179961,1755604473333,80.78,-74.75,-72.62,781,901,868,353,914,33.333333333333336,-0.988,-0.166,0.046
179991,1755604473335,80.82,-74.76,-72.64,781,907,873,388,920,33.333333333333336,-0.989,-0.166,0.043
180020,1755604473337,80.84,-74.78,-72.64,779,914,863,347,917,34.48275862068966,-0.99,-0.166,0.04
180041,1755604473339,80.84,-74.81,-72.63,781,903,874,396,914,47.61904761904762,-0.99,-0.165,0.038
180070,1755604473341,80.85,-74.86,-72.65,784,913,865,368,921,34.48275862068966,-0.987,-0.164,0.036
180100,1755604473344,80.79,-74.86,-72.67,788,914,878,331,922,33.333333333333336,-0.987,-0.165,0.038
180130,1755604473345,80.75,-74.87,-72.67,786,916,865,364,919,33.333333333333336,-0.989,-0.165,0.04
180160,1755604473348,80.75,-74.89,-72.67,774,906,872,454,924,33.333333333333336,-0.991,-0.162,0.041
180189,1755604473350,80.73,-74.87,-72.68,781,901,866,417,919,34.48275862068966,-0.989,-0.161,0.044
180219,1755604473353,80.7,-74.85,-72.7,780,919,873,336,920,33.333333333333336,-0.987,-0.163,0.043
180248,1755604473355,80.72,-74.9,-72.74,780,904,871,339,916,34.48275862068966,-0.99,-0.163,0.043
180278,1755604473357,80.65,-74.87,-72.74,781,907,868,424,931,33.333333333333336,-0.991,-0.162,0.045
180307,1755604473360,80.68,-74.84,-72.73,782,909,871,413,909,34.48275862068966,-0.995,-0.162,0.047
180337,1755604473362,80.67,-74.81,-72.73,782,913,871,382,919,33.333333333333336,-0.991,-0.163,0.046
180366,1755604473364,80.65,-74.78,-72.75,774,906,867,332,916,34.48275862068966,-0.981,-0.163,0.043
180396,1755604473366,80.65,-74.84,-72.8,781,909,868,360,920,33.333333333333336,-0.983,-0.165,0.042
180425,1755604473369,80.61,-74.88,-72.83,780,907,875,435,916,34.48275862068966,-0.987,-0.166,0.042
180455,1755604473370,80.65,-74.89,-72.82,781,914,867,415,914,33.333333333333336,-0.993,-0.167,0.044
180485,1755604473372,80.71,-74.9,-72.78,781,905,868,327,919,33.333333333333336,-0.995,-0.168,0.048
180514,1755604473374,80.7,-74.79,-72.73,779,912,866,326,921,34.48275862068966,-0.99,-0.163,0.051
180535,1755604473377,80.71,-74.72,-72.73,784,907,877,368,920,47.61904761904762,-0.984,-0.16,0.05
180564,1755604473379,80.69,-74.67,-72.77,787,899,876,356,922,34.48275862068966,-0.981,-0.157,0.045
180594,1755604473381,80.68,-74.69,-72.83,778,910,868,420,919,33.333333333333336,-0.984,-0.157,0.041
180614,1755604473383,80.62,-74.73,-72.88,784,907,865,339,923,50.0,-0.987,-0.16,0.039
180634,1755604473385,80.59,-74.76,-72.9,784,911,870,360,911,50.0,-0.99,-0.163,0.039
180694,1755604473390,80.58,-74.76,-72.9,782,909,870,429,913,33.333333333333336,-0.991,-0.166,0.047
180723,1755604473392,80.56,-74.7,-72.89,783,913,875,435,918,34.48275862068966,-0.989,-0.166,0.048
180753,1755604473395,80.56,-74.67,-72.89,785,913,875,365,921,33.333333333333336,-0.988,-0.166,0.044
180782,1755604473397,80.54,-74.69,-72.91,779,898,878,346,914,34.48275862068966,-0.99,-0.166,0.043
180812,1755604473399,80.54,-74.69,-72.92,784,906,872,398,913,33.333333333333336,-0.99,-0.164,0.044
180841,1755604473401,80.53,-74.68,-72.95,786,919,866,422,917,34.48275862068966,-0.988,-0.163,0.046
180871,1755604473403,80.51,-74.63,-72.98,783,914,868,398,927,33.333333333333336,-0.988,-0.163,0.049
180891,1755604473405,80.51,-74.6,-73.01,779,906,871,362,917,50.0,-0.988,-0.164,0.05
180920,1755604473407,80.51,-74.55,-73.01,784,910,868,363,917,34.48275862068966,-0.991,-0.166,0.047
180950,1755604473409,80.48,-74.52,-73.02,777,905,862,329,919,33.333333333333336,-0.989,-0.165,0.046
180980,1755604473411,80.44,-74.54,-73.05,791,911,872,354,921,33.333333333333336,-0.988,-0.164,0.045
181009,1755604473413,80.45,-74.56,-73.07,777,905,865,426,915,34.48275862068966,-0.988,-0.165,0.046
181039,1755604473415,80.44,-74.55,-73.08,784,911,871,412,921,33.333333333333336,-0.989,-0.166,0.048
181069,1755604473417,80.45,-74.52,-73.08,776,909,880,370,921,33.333333333333336,-0.99,-0.166,0.05
181098,1755604473419,80.46,-74.47,-73.08,783,907,868,337,918,34.48275862068966,-0.99,-0.166,0.051
181128,1755604473422,80.46,-74.43,-73.08,785,912,871,380,914,33.333333333333336,-0.99,-0.167,0.049
181158,1755604473424,80.9,-74.4,-73.08,776,907,872,442,925,33.333333333333336,-0.989,-0.166,0.05
181187,1755604473426,80.9,-74.34,-73.09,784,897,873,401,923,34.48275862068966,-0.989,-0.165,0.053
181217,1755604473429,80.89,-74.27,-73.1,779,911,870,318,918,33.333333333333336,-0.991,-0.167,0.052
181246,1755604473430,80.9,-74.25,-73.09,778,914,864,341,918,34.48275862068966,-0.99,-0.166,0.05
181276,1755604473433,80.87,-74.21,-73.1,779,921,866,420,919,33.333333333333336,-0.989,-0.165,0.05
181305,1755604473435,80.84,-74.21,-73.12,788,908,867,406,922,34.48275862068966,-0.988,-0.165,0.05
181335,1755604473437,80.66,-74.22,-73.09,776,909,865,349,919,33.333333333333336,-0.996,-0.167,0.052
181364,1755604473440,80.19,-74.15,-72.99,784,908,872,325,922,34.48275862068966,-0.991,-0.167,0.051
181394,1755604473442,80.18,-74.13,-73.03,777,912,872,386,919,33.333333333333336,-0.984,-0.164,0.052
181423,1755604473444,80.26,-74.09,-73.06,775,908,870,430,920,34.48275862068966,-0.988,-0.163,0.06
181453,1755604473446,80.32,-73.93,-73.08,781,906,868,389,912,33.333333333333336,-0.988,-0.164,0.065
181483,1755604473448,80.41,-73.83,-73.09,782,905,867,336,920,33.333333333333336,-0.989,-0.165,0.064
181512,1755604473452,80.63,-73.76,-73.13,780,913,866,368,912,34.48275862068966,-0.988,-0.165,0.062
181542,1755604473482,80.72,-73.7,-73.14,780,894,863,415,919,33.333333333333336,-0.989,-0.169,0.061
181572,1755604473511,80.71,-73.59,-73.14,780,920,866,414,924,33.333333333333336,-0.99,-0.168,0.056
181601,1755604473541,80.64,-73.53,-73.16,784,905,868,340,925,34.48275862068966,-0.988,-0.167,0.052
181630,1755604473570,80.62,-73.52,-73.19,785,911,870,328,917,34.48275862068966,-0.987,-0.166,0.052
181660,1755604473600,80.59,-73.53,-73.23,780,916,874,408,924,33.333333333333336,-0.986,-0.167,0.052
181689,1755604473629,80.56,-73.53,-73.27,781,908,865,407,921,34.48275862068966,-0.988,-0.167,0.056
181719,1755604473659,80.55,-73.48,-73.28,785,912,869,327,914,33.333333333333336,-0.989,-0.166,0.059
181749,1755604473689,80.55,-73.39,-73.29,784,903,865,334,919,33.333333333333336,-0.991,-0.166,0.06
181778,1755604473719,80.6,-73.33,-73.29,781,907,864,373,924,34.48275862068966,-0.99,-0.167,0.059
181808,1755604473748,80.6,-73.28,-73.28,780,910,872,445,918,33.333333333333336,-0.99,-0.167,0.057
181838,1755604473778,80.59,-73.22,-73.28,783,916,885,397,924,33.333333333333336,-0.988,-0.166,0.055
181867,1755604473807,80.59,-73.19,-73.3,776,901,874,322,928,34.48275862068966,-0.986,-0.164,0.057
181897,1755604473837,80.59,-73.1,-73.32,775,899,867,329,915,33.333333333333336,-0.988,-0.163,0.059
181926,1755604473866,80.65,-73.1,-73.36,784,888,880,406,920,34.48275862068966,-0.989,-0.164,0.058
181956,1755604473896,80.65,-73.04,-73.37,781,903,862,425,915,33.333333333333336,-0.988,-0.164,0.057
181986,1755604473926,80.68,-73.01,-73.39,780,909,875,362,914,33.333333333333336,-0.987,-0.166,0.057
182015,1755604473955,80.68,-72.96,-73.4,783,909,873,338,916,34.48275862068966,-0.988,-0.166,0.057
182045,1755604473985,80.66,-72.93,-73.41,785,910,874,386,917,33.333333333333336,-0.989,-0.167,0.056
182075,1755604474014,80.67,-72.89,-73.41,785,905,876,440,918,33.333333333333336,-0.989,-0.168,0.055
182104,1755604474044,80.68,-72.87,-73.41,781,909,878,401,923,34.48275862068966,-0.988,-0.168,0.055
182134,1755604474074,80.68,-72.84,-73.43,779,913,867,325,921,33.333333333333336,-0.989,-0.167,0.056
182164,1755604474104,80.66,-72.79,-73.43,783,907,867,324,915,33.333333333333336,-0.989,-0.167,0.056
182193,1755604474133,80.66,-72.79,-73.44,784,911,864,409,924,34.48275862068966,-0.99,-0.166,0.055
182223,1755604474165,80.67,-72.77,-73.44,777,907,873,419,923,33.333333333333336,-0.99,-0.166,0.056
182253,1755604474192,80.64,-72.74,-73.45,784,905,863,369,912,33.333333333333336,-0.99,-0.166,0.058
182282,1755604474222,80.63,-72.64,-73.45,778,905,870,294,920,34.48275862068966,-0.987,-0.166,0.061
182312,1755604474251,80.62,-72.54,-73.46,778,904,865,341,914,33.333333333333336,-0.986,-0.165,0.06
182341,1755604474281,80.63,-72.49,-73.48,784,903,869,403,911,34.48275862068966,-0.988,-0.165,0.057
182371,1755604474310,80.6,-72.44,-73.47,785,906,867,385,925,33.333333333333336,-0.99,-0.165,0.053
182400,1755604474340,80.6,-72.45,-73.49,780,907,886,325,921,34.48275862068966,-0.988,-0.166,0.05
182430,1755604474369,80.6,-72.5,-73.51,779,905,858,339,926,33.333333333333336,-0.987,-0.166,0.051
182459,1755604474399,80.6,-72.52,-73.54,780,908,866,408,917,34.48275862068966,-0.987,-0.165,0.054
182488,1755604474429,80.63,-72.5,-73.57,783,915,869,401,925,34.48275862068966,-0.988,-0.165,0.056
182518,1755604474458,80.62,-72.43,-73.58,780,908,858,357,919,33.333333333333336,-0.989,-0.164,0.058
182548,1755604474488,80.67,-72.39,-73.62,777,914,872,327,914,33.333333333333336,-0.991,-0.165,0.059
182578,1755604474518,80.67,-72.33,-73.63,782,910,871,381,923,33.333333333333336,-0.988,-0.165,0.057
182607,1755604474547,80.72,-72.28,-73.64,776,901,868,417,917,34.48275862068966,-0.99,-0.165,0.055
182637,1755604474577,80.71,-72.27,-73.65,783,906,875,393,927,33.333333333333336,-0.991,-0.165,0.054
182666,1755604474606,80.66,-72.26,-73.67,778,907,869,333,920,34.48275862068966,-0.988,-0.165,0.05
182696,1755604474636,80.68,-72.27,-73.69,789,903,864,346,917,33.333333333333336,-0.988,-0.166,0.05
182725,1755604474665,80.65,-72.31,-73.71,782,907,866,417,921,34.48275862068966,-0.988,-0.167,0.05
182755,1755604474695,80.68,-72.31,-73.7,778,909,856,420,915,33.333333333333336,-0.99,-0.168,0.051
182784,1755604474726,80.68,-72.35,-73.68,780,905,871,337,925,34.48275862068966,-0.991,-0.168,0.051
182814,1755604474754,80.72,-72.35,-73.66,784,905,868,332,926,33.333333333333336,-0.989,-0.168,0.053
182843,1755604474783,80.89,-72.39,-73.69,780,897,868,415,917,34.48275862068966,-0.99,-0.167,0.054
182873,1755604474813,80.94,-72.46,-73.68,775,912,865,431,911,33.333333333333336,-0.991,-0.167,0.052
182903,1755604474843,80.92,-72.43,-73.69,786,904,886,382,919,33.333333333333336,-0.989,-0.167,0.049
182932,1755604474872,81.02,-72.5,-73.7,777,909,869,336,918,34.48275862068966,-0.988,-0.167,0.048
182962,1755604474902,81.1,-72.54,-73.71,779,911,875,323,915,33.333333333333336,-0.992,-0.168,0.051
182991,1755604474931,81.04,-72.52,-73.67,784,903,866,411,915,34.48275862068966,-0.989,-0.167,0.049
183021,1755604474961,81.04,-72.5,-73.63,785,913,885,389,918,33.333333333333336,-0.992,-0.166,0.049
183051,1755604474990,81.05,-72.52,-73.6,777,919,862,330,907,33.333333333333336,-0.991,-0.165,0.047
183080,1755604475020,81.1,-72.57,-73.59,777,905,865,327,914,34.48275862068966,-0.988,-0.163,0.044
183110,1755604475050,81.1,-72.62,-73.59,785,912,863,397,916,33.333333333333336,-0.988,-0.163,0.044
183139,1755604475080,81.02,-72.65,-73.62,778,916,867,402,916,34.48275862068966,-0.984,-0.161,0.043
183169,1755604475109,81.03,-72.7,-73.67,779,906,863,361,919,33.333333333333336,-0.986,-0.161,0.046
183228,1755604475168,81.05,-72.76,-73.71,777,909,874,347,916,33.333333333333336,-0.992,-0.165,0.047
183257,1755604475197,81.04,-72.73,-73.71,781,904,872,422,915,34.48275862068966,-0.991,-0.164,0.047
183287,1755604475227,81.0,-72.72,-73.72,783,913,869,388,927,33.333333333333336,-0.987,-0.163,0.047
183316,1755604475257,81.0,-72.74,-73.75,781,911,869,308,918,34.48275862068966,-0.988,-0.164,0.044
183346,1755604475286,80.97,-72.81,-73.78,780,920,866,323,920,33.333333333333336,-0.989,-0.164,0.044
183375,1755604475315,80.92,-72.79,-73.81,783,908,849,411,911,34.48275862068966,-0.989,-0.164,0.048
183405,1755604475345,80.92,-72.72,-73.85,786,910,874,406,920,33.333333333333336,-0.989,-0.163,0.047
183434,1755604475374,80.94,-72.76,-73.89,784,906,871,335,929,34.48275862068966,-0.991,-0.164,0.046
183464,1755604475404,80.99,-72.78,-73.91,782,914,864,338,918,33.333333333333336,-0.992,-0.166,0.045
183494,1755604475434,80.95,-72.8,-73.91,780,903,872,394,919,33.333333333333336,-0.993,-0.168,0.043
183523,1755604475463,80.93,-72.85,-73.9,785,902,869,409,915,34.48275862068966,-0.993,-0.168,0.043
183553,1755604475493,80.93,-72.89,-73.9,779,912,881,370,930,33.333333333333336,-0.989,-0.167,0.046
183582,1755604475522,80.89,-72.93,-73.93,780,906,866,336,917,34.48275862068966,-0.986,-0.167,0.045
183612,1755604475552,80.86,-72.99,-73.96,781,903,867,368,910,33.333333333333336,-0.988,-0.167,0.045
183642,1755604475582,80.86,-73.04,-73.97,780,914,870,432,920,33.333333333333336,-0.993,-0.168,0.045
183662,1755604475602,80.86,-73.07,-73.97,785,909,876,346,920,50.0,-0.995,-0.168,0.045
183691,1755604475631,80.84,-73.09,-73.95,782,910,867,384,916,34.48275862068966,-0.991,-0.167,0.046
183721,1755604475661,80.83,-73.1,-73.95,779,906,863,390,916,33.333333333333336,-0.987,-0.167,0.046
183750,1755604475690,80.83,-73.14,-73.97,783,909,868,322,912,34.48275862068966,-0.989,-0.166,0.046
183780,1755604475720,80.8,-73.16,-73.97,777,899,862,331,920,33.333333333333336,-0.991,-0.166,0.046
183810,1755604475749,80.83,-73.21,-73.99,777,903,869,413,931,33.333333333333336,-0.99,-0.166,0.045
183839,1755604475779,80.81,-73.25,-74.0,784,905,867,422,925,34.48275862068966,-0.99,-0.166,0.046
183868,1755604475808,80.75,-73.24,-73.99,773,915,864,356,922,34.48275862068966,-0.989,-0.167,0.047
183898,1755604475838,80.76,-73.26,-73.99,778,904,872,328,919,33.333333333333336,-0.991,-0.167,0.047
183957,1755604475897,80.78,-73.29,-73.99,781,900,871,428,929,33.333333333333336,-0.989,-0.165,0.048
183986,1755604475927,80.77,-73.29,-74.0,781,916,873,354,920,34.48275862068966,-0.988,-0.164,0.047
184016,1755604475956,80.77,-73.34,-74.04,786,900,864,304,917,33.333333333333336,-0.989,-0.164,0.046
184046,1755604475986,80.75,-73.41,-74.07,787,910,868,330,912,33.333333333333336,-0.991,-0.165,0.044
184075,1755604476015,80.76,-73.48,-74.09,782,912,868,426,919,34.48275862068966,-0.99,-0.166,0.044
184105,1755604476045,80.71,-73.49,-74.1,780,900,868,401,932,33.333333333333336,-0.989,-0.165,0.049
184134,1755604476074,80.72,-73.45,-74.12,782,909,861,344,921,34.48275862068966,-0.99,-0.165,0.051
184164,1755604476104,80.71,-73.45,-74.13,779,909,877,303,924,33.333333333333336,-0.991,-0.166,0.048
184193,1755604476133,80.75,-73.48,-74.14,785,912,869,383,917,34.48275862068966,-0.991,-0.168,0.045
184223,1755604476163,80.74,-73.54,-74.14,783,905,870,400,929,33.333333333333336,-0.989,-0.168,0.044
184252,1755604476192,80.7,-73.56,-74.15,775,908,862,367,917,34.48275862068966,-0.989,-0.167,0.046
184282,1755604476222,80.72,-73.57,-74.16,782,917,863,325,903,33.333333333333336,-0.989,-0.167,0.049
184311,1755604476251,80.71,-73.58,-74.17,782,911,869,357,916,34.48275862068966,-0.99,-0.166,0.05
184341,1755604476281,80.69,-73.54,-74.18,778,905,865,422,919,33.333333333333336,-0.99,-0.165,0.048
184370,1755604476310,80.65,-73.53,-74.19,775,908,869,398,916,34.48275862068966,-0.989,-0.165,0.047
184400,1755604476340,80.68,-73.57,-74.22,778,912,865,328,919,33.333333333333336,-0.991,-0.166,0.047
184429,1755604476370,80.66,-73.61,-74.22,785,899,865,336,920,34.48275862068966,-0.991,-0.167,0.047
184459,1755604476399,80.65,-73.58,-74.22,785,907,871,418,918,33.333333333333336,-0.99,-0.166,0.048
184488,1755604476428,80.63,-73.55,-74.23,782,909,869,423,919,34.48275862068966,-0.988,-0.166,0.05
184518,1755604476458,80.64,-73.54,-74.24,785,900,871,342,916,33.333333333333336,-0.99,-0.166,0.049
184548,1755604476487,80.64,-73.55,-74.25,780,909,874,286,918,33.333333333333336,-0.99,-0.166,0.047
184577,1755604476517,80.62,-73.55,-74.26,782,909,870,362,921,34.48275862068966,-0.989,-0.166,0.047
184607,1755604476546,80.66,-73.56,-74.27,779,902,872,414,914,33.333333333333336,-0.99,-0.166,0.048
184636,1755604476576,80.63,-73.55,-74.27,781,897,867,365,916,34.48275862068966,-0.991,-0.166,0.048
184665,1755604476605,80.64,-73.52,-74.27,778,913,858,327,917,34.48275862068966,-0.99,-0.165,0.049
184695,1755604476635,80.68,-73.52,-74.29,786,892,865,356,918,33.333333333333336,-0.988,-0.165,0.047
184724,1755604476664,80.64,-73.53,-74.31,776,908,871,422,921,34.48275862068966,-0.988,-0.166,0.046
184754,1755604476694,80.66,-73.53,-74.33,780,916,873,400,928,33.333333333333336,-0.991,-0.167,0.047
184783,1755604476723,80.59,-73.55,-74.33,782,907,883,323,911,34.48275862068966,-0.989,-0.167,0.047
184813,1755604476753,80.64,-73.58,-74.35,780,915,869,342,918,33.333333333333336,-0.992,-0.167,0.048
184842,1755604476782,80.64,-73.58,-74.34,782,909,872,417,913,34.48275862068966,-0.993,-0.167,0.049
184872,1755604476812,80.61,-73.57,-74.34,784,909,866,421,912,33.333333333333336,-0.992,-0.167,0.049
184901,1755604476841,80.63,-73.58,-74.33,785,897,863,355,919,34.48275862068966,-0.99,-0.167,0.047
184931,1755604476871,80.62,-73.62,-74.34,783,901,868,339,913,33.333333333333336,-0.989,-0.166,0.047
184960,1755604476900,80.64,-73.64,-74.35,782,904,877,378,916,34.48275862068966,-0.987,-0.166,0.048
184990,1755604476930,80.6,-73.63,-74.36,780,910,869,422,915,33.333333333333336,-0.988,-0.165,0.048
185019,1755604476959,80.6,-73.64,-74.38,783,907,864,384,920,34.48275862068966,-0.991,-0.165,0.047
185049,1755604476989,80.6,-73.64,-74.39,780,910,870,330,920,33.333333333333336,-0.989,-0.165,0.048
185078,1755604477018,80.58,-73.61,-74.4,773,900,871,350,916,34.48275862068966,-0.989,-0.165,0.05
185108,1755604477048,80.6,-73.59,-74.42,783,912,864,438,920,33.333333333333336,-0.99,-0.166,0.049
185137,1755604477077,80.58,-73.61,-74.43,784,913,861,425,922,34.48275862068966,-0.99,-0.167,0.049
185196,1755604477136,80.62,-73.59,-74.43,783,907,862,342,921,34.48275862068966,-0.988,-0.165,0.051
185226,1755604477166,80.59,-73.58,-74.44,781,903,872,409,915,33.333333333333336,-0.989,-0.165,0.049
185285,1755604477225,80.62,-73.61,-74.47,789,909,863,370,910,33.333333333333336,-0.99,-0.165,0.049
185314,1755604477255,80.62,-73.58,-74.47,779,916,868,335,924,34.48275862068966,-0.989,-0.165,0.049
185344,1755604477284,80.61,-73.58,-74.48,789,902,876,368,920,33.333333333333336,-0.99,-0.165,0.05
185373,1755604477314,80.62,-73.56,-74.49,777,906,866,430,924,34.48275862068966,-0.99,-0.165,0.049
185403,1755604477343,80.64,-73.56,-74.5,777,906,868,400,921,33.333333333333336,-0.989,-0.165,0.048
185433,1755604477373,80.63,-73.56,-74.52,780,904,866,298,920,33.333333333333336,-0.988,-0.165,0.048
185462,1755604477402,80.63,-73.58,-74.54,784,910,861,322,920,34.48275862068966,-0.989,-0.166,0.047
185492,1755604477432,80.62,-73.61,-74.57,774,907,868,400,927,33.333333333333336,-0.99,-0.165,0.049
185521,1755604477461,80.66,-73.6,-74.6,779,903,872,401,920,34.48275862068966,-0.989,-0.164,0.051
185551,1755604477491,80.65,-73.53,-74.59,774,910,864,339,924,33.333333333333336,-0.992,-0.166,0.051
185580,1755604477521,80.64,-73.51,-74.59,785,907,883,326,920,34.48275862068966,-0.99,-0.166,0.048
185610,1755604477550,80.62,-73.5,-74.59,780,914,871,380,920,33.333333333333336,-0.987,-0.165,0.049
185640,1755604477580,80.61,-73.48,-74.61,783,908,860,434,913,33.333333333333336,-0.986,-0.166,0.05
185669,1755604477609,80.62,-73.46,-74.62,787,921,871,391,913,34.48275862068966,-0.987,-0.166,0.05
185699,1755604477639,80.63,-73.48,-74.63,784,909,872,313,922,33.333333333333336,-0.988,-0.167,0.047
185728,1755604477668,80.63,-73.48,-74.62,778,904,865,346,913,34.48275862068966,-0.99,-0.166,0.046
185758,1755604477698,80.61,-73.51,-74.64,783,914,851,421,921,33.333333333333336,-0.989,-0.166,0.045
185787,1755604477728,80.55,-73.51,-74.65,785,908,860,417,918,34.48275862068966,-0.99,-0.165,0.048
185808,1755604477747,80.55,-73.5,-74.66,779,909,858,393,924,47.61904761904762,-0.991,-0.166,0.051
185837,1755604477777,80.56,-73.46,-74.65,783,915,869,388,917,34.48275862068966,-0.991,-0.166,0.052
185867,1755604477807,80.6,-73.44,-74.64,787,907,858,314,925,33.333333333333336,-0.991,-0.167,0.05
185896,1755604477836,80.58,-73.43,-74.64,782,908,878,329,926,34.48275862068966,-0.987,-0.165,0.049
185926,1755604477866,80.58,-73.41,-74.66,779,909,872,401,913,33.333333333333336,-0.987,-0.165,0.049
185956,1755604477895,80.56,-73.44,-74.68,779,908,870,433,922,33.333333333333336,-0.989,-0.165,0.047
185985,1755604477925,80.54,-73.45,-74.71,781,906,870,391,918,34.48275862068966,-0.988,-0.165,0.049
186015,1755604477955,80.55,-73.43,-74.72,781,902,863,340,918,33.333333333333336,-0.989,-0.166,0.049
186044,1755604477984,80.53,-73.42,-74.71,783,910,869,368,914,34.48275862068966,-0.989,-0.166,0.05
186074,1755604478014,80.54,-73.41,-74.72,785,910,872,431,920,33.333333333333336,-0.989,-0.165,0.05
186103,1755604478044,80.55,-73.39,-74.74,789,902,870,411,917,34.48275862068966,-0.989,-0.165,0.049
186133,1755604478073,80.53,-73.39,-74.75,784,906,881,329,914,33.333333333333336,-0.988,-0.165,0.048
186163,1755604478103,80.55,-73.42,-74.77,777,906,868,327,910,33.333333333333336,-0.988,-0.166,0.047
186192,1755604478132,80.55,-73.45,-74.77,780,908,864,409,914,34.48275862068966,-0.989,-0.166,0.048
186222,1755604478162,80.55,-73.43,-74.79,779,908,870,424,918,33.333333333333336,-0.989,-0.165,0.052
186251,1755604478191,80.53,-73.37,-74.79,781,909,859,369,923,34.48275862068966,-0.99,-0.166,0.052
186281,1755604478221,80.54,-73.38,-74.79,782,911,870,329,922,33.333333333333336,-0.99,-0.166,0.048
186310,1755604478250,80.56,-73.37,-74.79,780,900,861,360,921,34.48275862068966,-0.988,-0.165,0.047
186340,1755604478280,80.52,-73.38,-74.83,783,909,864,411,916,33.333333333333336,-0.985,-0.165,0.045
186370,1755604478378,80.5,-73.44,-74.86,781,901,873,408,923,33.333333333333336,-0.988,-0.167,0.045
186399,1755604478380,80.51,-73.41,-74.87,782,914,870,329,920,34.48275862068966,-0.992,-0.167,0.054
186429,1755604478383,80.51,-73.37,-74.87,782,908,865,336,918,33.333333333333336,-0.99,-0.167,0.055
186458,1755604478400,80.53,-73.33,-74.87,782,903,875,403,918,34.48275862068966,-0.989,-0.167,0.052
186488,1755604478431,80.49,-73.36,-74.9,779,912,868,410,922,33.333333333333336,-0.988,-0.165,0.049
186517,1755604478465,80.45,-73.37,-74.92,785,910,864,368,922,34.48275862068966,-0.989,-0.166,0.051
186547,1755604478487,80.46,-73.35,-74.94,789,910,874,334,913,33.333333333333336,-0.99,-0.165,0.052
186576,1755604478520,80.45,-73.35,-74.96,781,902,869,387,918,34.48275862068966,-0.99,-0.167,0.053
186606,1755604478555,80.43,-73.32,-74.97,781,906,868,425,930,33.333333333333336,-0.988,-0.167,0.052
