timestamp_ms,recv_timestamp_ms,pitch,roll,yaw,flex1,flex2,flex3,flex4,flex5,sampling_hz,accel_x,accel_y,accel_z
123059,1755607513156,23.14,-157.06,-20.61,790,776,785,346,877,50.0,-0.365,-0.355,-0.859
123089,1755607513158,23.13,-157.06,-20.65,789,774,785,398,883,33.333333333333336,-0.363,-0.353,-0.858
123119,1755607513160,23.11,-157.03,-20.6,795,777,788,383,881,33.333333333333336,-0.36,-0.349,-0.849
123148,1755607513163,23.05,-156.79,-20.72,793,776,782,345,876,34.48275862068966,-0.349,-0.351,-0.858
123178,1755607513165,22.56,-156.55,-20.79,792,768,786,351,881,33.333333333333336,-0.349,-0.361,-0.875
123207,1755607513167,21.94,-156.72,-21.01,792,769,782,395,883,34.48275862068966,-0.357,-0.359,-0.877
123237,1755607513169,21.59,-157.1,-21.3,789,774,787,388,873,33.333333333333336,-0.378,-0.363,-0.855
123266,1755607513171,21.54,-157.05,-21.37,789,779,786,374,882,34.48275862068966,-0.391,-0.365,-0.84
123296,1755607513173,21.64,-156.77,-21.21,791,778,782,344,881,33.333333333333336,-0.39,-0.369,-0.84
123326,1755607513175,21.95,-156.58,-21.03,792,777,787,367,881,33.333333333333336,-0.388,-0.37,-0.848
123355,1755607513177,22.18,-156.5,-20.9,793,775,788,417,880,34.48275862068966,-0.382,-0.367,-0.856
123385,1755607513179,22.24,-156.43,-20.85,794,774,790,403,876,33.333333333333336,-0.376,-0.364,-0.859
123414,1755607513181,22.13,-156.42,-20.87,792,779,785,342,880,34.48275862068966,-0.369,-0.361,-0.856
123434,1755607513183,22.06,-156.44,-20.91,795,777,786,419,876,50.0,-0.371,-0.363,-0.853
123464,1755607513198,21.98,-156.41,-20.94,789,775,785,360,874,33.333333333333336,-0.375,-0.367,-0.853
123493,1755607513227,22.02,-156.39,-20.96,794,777,779,353,877,34.48275862068966,-0.381,-0.371,-0.851
123523,1755607513257,22.14,-156.37,-20.93,794,780,788,396,877,33.333333333333336,-0.382,-0.372,-0.848
123553,1755607513287,22.3,-156.3,-20.89,788,772,785,384,878,33.333333333333336,-0.382,-0.37,-0.846
123582,1755607513316,22.41,-156.15,-20.85,792,775,786,342,880,34.48275862068966,-0.377,-0.368,-0.845
123612,1755607513346,22.47,-156.02,-20.83,787,780,785,348,878,33.333333333333336,-0.372,-0.369,-0.849
123641,1755607513375,22.49,-156.0,-20.85,790,780,785,391,878,34.48275862068966,-0.374,-0.372,-0.856
123671,1755607513405,22.44,-156.05,-20.84,790,770,786,407,877,33.333333333333336,-0.371,-0.372,-0.853
123701,1755607513435,22.41,-156.1,-20.84,790,776,781,376,878,33.333333333333336,-0.371,-0.372,-0.847
123730,1755607513464,22.43,-156.02,-20.84,790,770,786,336,877,34.48275862068966,-0.372,-0.372,-0.849
123760,1755607513494,22.44,-156.02,-20.85,792,775,782,365,877,33.333333333333336,-0.372,-0.372,-0.85
123790,1755607513523,22.44,-156.01,-20.88,793,776,789,400,880,33.333333333333336,-0.371,-0.373,-0.85
123849,1755607513583,22.46,-155.91,-20.9,793,775,790,354,877,33.333333333333336,-0.369,-0.377,-0.847
123879,1755607513613,22.49,-155.88,-20.89,792,770,788,333,873,33.333333333333336,-0.37,-0.379,-0.848
123908,1755607513642,22.49,-155.84,-20.86,792,777,789,370,872,34.48275862068966,-0.37,-0.381,-0.85
123938,1755607513672,22.49,-155.85,-20.83,787,779,787,398,874,33.333333333333336,-0.37,-0.381,-0.85
123967,1755607513701,22.49,-155.86,-20.8,790,776,788,394,878,34.48275862068966,-0.367,-0.378,-0.849
123997,1755607513731,22.44,-155.84,-20.8,786,771,788,333,879,33.333333333333336,-0.365,-0.376,-0.85
124027,1755607513761,22.34,-155.83,-20.85,786,772,781,343,879,33.333333333333336,-0.362,-0.376,-0.852
124056,1755607513790,22.17,-155.81,-20.91,792,775,783,394,880,34.48275862068966,-0.362,-0.377,-0.852
124086,1755607513819,22.01,-155.81,-20.95,793,774,786,396,876,33.333333333333336,-0.366,-0.379,-0.85
124115,1755607513849,21.89,-155.82,-20.97,793,777,784,350,881,34.48275862068966,-0.365,-0.379,-0.846
124145,1755607513879,21.8,-155.77,-20.99,794,775,788,337,881,33.333333333333336,-0.368,-0.38,-0.846
124174,1755607513908,21.69,-155.74,-20.99,787,772,786,383,880,34.48275862068966,-0.371,-0.381,-0.848
124204,1755607513938,21.64,-155.74,-21.02,796,777,782,400,880,33.333333333333336,-0.372,-0.382,-0.845
124233,1755607513967,21.63,-155.72,-21.02,789,775,789,372,880,34.48275862068966,-0.373,-0.383,-0.844
124263,1755607513997,21.58,-155.68,-21.01,787,771,781,332,886,33.333333333333336,-0.375,-0.383,-0.845
124293,1755607514027,21.5,-155.64,-20.98,787,770,782,352,875,33.333333333333336,-0.375,-0.382,-0.844
124322,1755607514056,21.44,-155.6,-20.97,792,780,782,414,882,34.48275862068966,-0.375,-0.382,-0.842
124352,1755607514086,21.41,-155.55,-20.97,787,772,780,400,877,33.333333333333336,-0.378,-0.382,-0.842
124382,1755607514116,21.42,-155.55,-20.96,793,774,785,352,877,33.333333333333336,-0.38,-0.384,-0.841
124411,1755607514145,21.46,-155.49,-20.93,794,768,786,345,881,34.48275862068966,-0.383,-0.387,-0.838
124441,1755607514175,21.55,-155.44,-20.86,794,772,784,371,877,33.333333333333336,-0.384,-0.388,-0.84
124470,1755607514204,21.63,-155.42,-20.78,795,776,784,390,882,34.48275862068966,-0.383,-0.388,-0.84
124500,1755607514234,21.7,-155.41,-20.72,792,776,780,377,875,33.333333333333336,-0.38,-0.386,-0.84
124529,1755607514263,21.8,-155.39,-20.7,787,774,788,350,880,34.48275862068966,-0.379,-0.383,-0.84
124559,1755607514293,21.82,-155.36,-20.7,792,781,781,359,879,33.333333333333336,-0.377,-0.382,-0.842
124588,1755607514322,21.85,-155.36,-20.73,792,778,789,412,878,34.48275862068966,-0.374,-0.382,-0.84
124618,1755607514352,21.86,-155.33,-20.75,793,773,784,400,884,33.333333333333336,-0.374,-0.384,-0.841
124648,1755607514382,21.81,-155.3,-20.78,789,774,787,360,878,33.333333333333336,-0.372,-0.385,-0.844
124677,1755607514411,21.75,-155.3,-20.82,791,782,781,352,879,34.48275862068966,-0.374,-0.387,-0.844
124707,1755607514441,21.74,-155.37,-20.89,791,778,781,396,877,33.333333333333336,-0.374,-0.388,-0.843
124736,1755607514470,21.78,-155.42,-20.92,789,769,785,414,880,34.48275862068966,-0.38,-0.389,-0.842
124766,1755607514500,21.8,-155.4,-20.88,794,776,787,364,881,33.333333333333336,-0.382,-0.388,-0.841
124795,1755607514529,21.87,-155.4,-20.86,790,776,785,340,876,34.48275862068966,-0.381,-0.387,-0.839
124854,1755607514589,22.19,-155.25,-20.84,790,771,786,408,877,34.48275862068966,-0.38,-0.387,-0.835
124884,1755607514619,22.51,-155.07,-20.89,788,771,787,388,880,33.333333333333336,-0.379,-0.388,-0.834
124904,1755607514638,22.8,-154.94,-20.94,789,776,780,384,883,50.0,-0.38,-0.391,-0.831
124934,1755607514668,23.28,-154.63,-20.86,792,774,788,383,885,33.333333333333336,-0.387,-0.395,-0.824
124963,1755607514698,23.58,-154.11,-20.63,788,768,781,330,878,34.48275862068966,-0.384,-0.398,-0.823
124983,1755607514717,23.79,-153.76,-20.44,790,779,784,395,884,50.0,-0.37,-0.4,-0.831
125013,1755607514747,24.03,-153.37,-20.18,785,776,784,363,875,33.333333333333336,-0.353,-0.404,-0.842
125042,1755607514776,24.23,-153.12,-20.05,794,775,782,375,876,34.48275862068966,-0.341,-0.404,-0.853
125072,1755607514806,24.16,-152.99,-20.09,792,779,783,397,881,33.333333333333336,-0.324,-0.408,-0.863
125131,1755607514865,23.66,-153.07,-20.38,792,777,787,356,883,34.48275862068966,-0.316,-0.411,-0.859
125161,1755607514895,23.38,-153.11,-20.57,791,774,784,352,872,33.333333333333336,-0.321,-0.412,-0.853
125190,1755607514924,23.13,-153.07,-20.75,790,778,788,391,880,34.48275862068966,-0.327,-0.415,-0.848
125220,1755607514954,22.98,-153.08,-20.89,793,768,787,402,876,33.333333333333336,-0.336,-0.42,-0.846
125249,1755607514983,22.88,-153.09,-20.97,789,775,786,375,877,34.48275862068966,-0.343,-0.423,-0.842
125279,1755607515013,22.82,-153.1,-20.96,791,779,785,349,877,33.333333333333336,-0.346,-0.424,-0.84
125309,1755607515043,22.8,-153.09,-20.94,789,776,786,364,874,33.333333333333336,-0.345,-0.425,-0.839
125338,1755607515072,22.8,-153.08,-20.92,793,772,781,408,874,34.48275862068966,-0.341,-0.427,-0.839
125368,1755607515102,22.76,-153.05,-20.92,794,775,786,392,875,33.333333333333336,-0.338,-0.428,-0.841
125398,1755607515132,22.63,-153.04,-20.93,792,778,790,350,879,33.333333333333336,-0.336,-0.428,-0.842
125427,1755607515162,22.49,-153.02,-20.95,790,777,788,355,875,34.48275862068966,-0.335,-0.428,-0.842
125457,1755607515191,22.38,-153.01,-20.99,792,776,788,396,876,33.333333333333336,-0.335,-0.429,-0.84
125487,1755607515221,22.26,-152.97,-21.02,793,774,784,419,878,33.333333333333336,-0.337,-0.429,-0.838
125516,1755607515250,22.15,-152.91,-21.02,790,774,790,342,879,34.48275862068966,-0.339,-0.43,-0.837
125546,1755607515280,22.05,-152.87,-21.01,791,777,787,337,877,33.333333333333336,-0.34,-0.431,-0.838
125576,1755607515309,21.97,-152.83,-20.99,784,776,785,346,875,33.333333333333336,-0.342,-0.433,-0.836
125605,1755607515339,21.91,-152.77,-20.94,795,777,787,396,878,34.48275862068966,-0.343,-0.433,-0.835
125635,1755607515369,21.88,-152.7,-20.9,793,784,789,395,875,33.333333333333336,-0.344,-0.432,-0.833
125665,1755607515399,21.85,-152.64,-20.86,793,783,784,359,877,33.333333333333336,-0.341,-0.433,-0.834
125694,1755607515428,21.8,-152.59,-20.85,790,774,785,340,871,34.48275862068966,-0.339,-0.434,-0.835
125724,1755607515458,21.7,-152.54,-20.84,790,779,780,386,872,33.333333333333336,-0.339,-0.434,-0.837
125753,1755607515487,21.55,-152.52,-20.86,793,778,788,407,872,34.48275862068966,-0.337,-0.433,-0.839
125783,1755607515517,21.35,-152.52,-20.91,787,778,788,367,879,33.333333333333336,-0.336,-0.433,-0.837
125813,1755607515546,21.14,-152.51,-20.98,791,770,783,346,878,33.333333333333336,-0.338,-0.435,-0.837
125842,1755607515576,20.92,-152.51,-21.06,792,777,785,366,872,34.48275862068966,-0.34,-0.436,-0.836
125872,1755607515606,20.75,-152.56,-21.14,788,770,784,415,874,33.333333333333336,-0.344,-0.436,-0.831
125892,1755607515626,20.65,-152.56,-21.19,790,773,785,364,878,50.0,-0.348,-0.437,-0.825
125922,1755607515656,20.61,-152.46,-21.23,791,777,785,406,876,33.333333333333336,-0.354,-0.442,-0.821
125951,1755607515685,20.69,-152.37,-21.2,793,769,788,402,881,34.48275862068966,-0.361,-0.445,-0.821
125981,1755607515715,20.84,-152.33,-21.1,789,769,788,341,876,33.333333333333336,-0.366,-0.443,-0.82
126010,1755607515745,21.04,-152.26,-20.98,790,778,785,336,873,34.48275862068966,-0.364,-0.441,-0.819
126030,1755607515764,21.15,-152.23,-20.91,792,774,783,327,879,50.0,-0.357,-0.439,-0.818
126060,1755607515794,21.31,-152.1,-20.8,791,781,785,353,875,33.333333333333336,-0.353,-0.439,-0.82
126080,1755607515814,21.4,-152.04,-20.74,792,780,790,361,876,50.0,-0.358,-0.441,-0.825
126110,1755607515843,21.51,-151.95,-20.65,790,773,782,364,875,33.333333333333336,-0.353,-0.441,-0.826
126139,1755607515873,21.64,-151.9,-20.61,791,774,789,413,879,34.48275862068966,-0.35,-0.437,-0.824
126169,1755607515903,21.87,-151.94,-20.62,785,777,786,403,881,33.333333333333336,-0.342,-0.433,-0.822
126198,1755607515932,22.12,-152.11,-20.7,790,775,789,365,883,34.48275862068966,-0.327,-0.432,-0.818
126228,1755607515963,22.6,-152.24,-21.0,786,776,785,341,876,33.333333333333336,-0.333,-0.448,-0.824
126248,1755607515982,22.88,-152.23,-21.08,791,775,785,398,876,50.0,-0.355,-0.461,-0.826
126307,1755607516041,23.51,-151.95,-20.5,791,779,787,387,871,34.48275862068966,-0.362,-0.454,-0.831
126337,1755607516071,23.82,-151.79,-20.14,792,777,782,409,870,33.333333333333336,-0.345,-0.445,-0.828
126366,1755607516100,24.13,-151.68,-19.86,794,772,786,380,873,34.48275862068966,-0.328,-0.441,-0.832
126396,1755607516130,24.35,-151.65,-19.7,792,774,787,339,880,33.333333333333336,-0.308,-0.442,-0.841
126426,1755607516160,24.48,-151.74,-19.68,792,778,782,312,884,33.333333333333336,-0.288,-0.438,-0.854
126455,1755607516189,24.4,-152.03,-19.84,792,776,787,387,873,34.48275862068966,-0.275,-0.432,-0.864
126485,1755607516219,24.07,-152.38,-20.13,790,774,785,403,877,33.333333333333336,-0.274,-0.431,-0.866
126514,1755607516249,23.62,-152.64,-20.47,790,777,783,350,874,34.48275862068966,-0.286,-0.433,-0.861
126534,1755607516268,23.21,-152.68,-20.61,791,777,787,404,881,50.0,-0.294,-0.434,-0.857
126564,1755607516298,22.84,-152.8,-20.82,787,776,786,345,877,33.333333333333336,-0.3,-0.435,-0.852
126594,1755607516327,22.65,-152.87,-20.92,792,771,782,335,869,33.333333333333336,-0.31,-0.435,-0.845
126623,1755607516357,22.6,-152.85,-20.93,787,776,787,390,880,34.48275862068966,-0.315,-0.435,-0.843
126653,1755607516387,22.63,-152.81,-20.87,786,781,787,402,879,33.333333333333336,-0.314,-0.436,-0.842
126683,1755607516417,22.74,-152.84,-20.84,791,779,783,378,877,33.333333333333336,-0.305,-0.436,-0.843
126712,1755607516446,22.91,-152.96,-20.86,788,781,783,342,877,34.48275862068966,-0.302,-0.434,-0.847
126742,1755607516476,23.14,-153.16,-20.91,793,775,788,364,875,33.333333333333336,-0.299,-0.433,-0.85
126772,1755607516506,23.44,-153.34,-20.94,788,771,784,407,875,33.333333333333336,-0.304,-0.431,-0.849
126801,1755607516535,23.7,-153.25,-20.78,788,777,787,402,876,34.48275862068966,-0.304,-0.43,-0.851
126831,1755607516565,23.76,-153.25,-20.7,790,779,784,352,871,33.333333333333336,-0.279,-0.426,-0.861
126861,1755607516595,23.71,-153.41,-20.77,786,776,784,356,871,33.333333333333336,-0.267,-0.422,-0.869
126890,1755607516625,23.61,-153.56,-20.91,789,779,785,397,875,34.48275862068966,-0.259,-0.421,-0.873
126910,1755607516644,23.45,-153.66,-21.07,793,776,786,363,875,50.0,-0.249,-0.42,-0.874
126940,1755607516674,23.41,-153.97,-21.4,787,770,788,402,878,33.333333333333336,-0.254,-0.419,-0.872
126969,1755607516704,23.4,-154.17,-21.6,791,780,779,395,878,34.48275862068966,-0.261,-0.417,-0.87
127029,1755607516763,23.88,-154.75,-21.89,792,780,786,332,878,33.333333333333336,-0.278,-0.424,-0.874
127058,1755607516792,23.63,-154.47,-21.59,793,781,787,355,874,34.48275862068966,-0.267,-0.42,-0.872
127088,1755607516822,23.2,-154.07,-21.3,792,774,781,396,878,33.333333333333336,-0.253,-0.413,-0.875
127118,1755607516852,22.7,-153.72,-21.08,788,769,782,402,878,33.333333333333336,-0.242,-0.409,-0.88
127147,1755607516881,22.32,-153.69,-21.08,791,780,787,342,874,34.48275862068966,-0.233,-0.411,-0.884
127177,1755607516911,21.92,-153.71,-21.1,792,779,788,328,879,33.333333333333336,-0.234,-0.412,-0.881
127207,1755607516941,21.53,-153.63,-21.13,791,779,784,393,871,33.333333333333336,-0.241,-0.411,-0.876
127236,1755607516970,21.24,-153.61,-21.17,791,778,787,423,879,34.48275862068966,-0.248,-0.412,-0.872
127296,1755607517030,21.34,-153.77,-21.16,790,779,787,341,876,33.333333333333336,-0.259,-0.419,-0.863
127325,1755607517059,21.66,-153.89,-21.15,785,770,788,339,878,34.48275862068966,-0.255,-0.417,-0.867
127355,1755607517089,21.88,-153.99,-21.13,792,776,787,355,878,33.333333333333336,-0.256,-0.417,-0.873
127385,1755607517119,21.67,-153.8,-20.9,789,780,788,381,875,33.333333333333336,-0.259,-0.418,-0.88
127415,1755607517148,21.18,-153.53,-20.61,789,777,785,356,876,33.333333333333336,-0.251,-0.417,-0.881
127444,1755607517178,20.52,-153.23,-20.34,789,778,784,326,879,34.48275862068966,-0.239,-0.415,-0.88
127474,1755607517208,20.02,-153.08,-20.24,787,776,786,365,880,33.333333333333336,-0.235,-0.415,-0.878
127533,1755607517267,19.37,-153.2,-20.46,786,777,786,382,879,33.333333333333336,-0.234,-0.417,-0.874
127562,1755607517296,19.08,-153.35,-20.64,791,774,785,337,874,34.48275862068966,-0.245,-0.418,-0.869
127592,1755607517326,18.91,-153.43,-20.77,788,771,789,363,879,33.333333333333336,-0.26,-0.422,-0.862
127621,1755607517355,18.91,-153.47,-20.81,793,775,785,397,876,34.48275862068966,-0.274,-0.423,-0.858
127651,1755607517385,19.09,-153.53,-20.81,793,776,782,404,875,33.333333333333336,-0.281,-0.424,-0.856
127681,1755607517415,19.22,-153.44,-20.67,790,770,785,362,879,33.333333333333336,-0.275,-0.422,-0.859
127711,1755607517445,19.26,-153.35,-20.6,792,775,790,363,879,33.333333333333336,-0.269,-0.421,-0.863
127731,1755607517465,19.19,-153.28,-20.55,788,770,784,380,873,50.0,-0.267,-0.422,-0.867
127760,1755607517495,19.06,-153.2,-20.49,791,774,785,365,879,34.48275862068966,-0.262,-0.424,-0.871
127811,1755607517544,18.81,-153.2,-20.46,786,779,791,361,874,33.333333333333336,-0.255,-0.426,-0.868
127840,1755607517574,18.67,-153.17,-20.46,793,771,781,391,878,34.48275862068966,-0.254,-0.425,-0.866
127870,1755607517604,18.46,-153.12,-20.48,791,779,786,422,879,33.333333333333336,-0.253,-0.423,-0.867
127899,1755607517634,18.19,-153.1,-20.54,791,775,787,385,878,34.48275862068966,-0.252,-0.424,-0.869
127929,1755607517663,17.94,-153.16,-20.68,792,775,784,351,875,33.333333333333336,-0.258,-0.427,-0.87
127959,1755607517693,17.7,-153.2,-20.72,792,781,785,363,879,33.333333333333336,-0.267,-0.43,-0.863
127988,1755607517722,17.64,-153.17,-20.72,789,770,785,410,878,34.48275862068966,-0.278,-0.431,-0.856
128018,1755607517752,17.64,-153.12,-20.61,795,777,787,413,881,33.333333333333336,-0.283,-0.431,-0.859
128048,1755607517782,17.67,-153.13,-20.47,792,777,786,358,876,33.333333333333336,-0.283,-0.43,-0.859
128077,1755607517811,17.61,-152.92,-20.3,787,774,786,350,874,34.48275862068966,-0.286,-0.429,-0.86
128107,1755607517842,17.37,-152.62,-20.07,789,770,787,397,879,33.333333333333336,-0.281,-0.427,-0.86
128137,1755607517871,17.1,-152.51,-20.01,794,775,786,430,869,33.333333333333336,-0.266,-0.427,-0.862
128167,1755607517901,16.95,-152.55,-20.13,792,776,786,396,877,33.333333333333336,-0.267,-0.429,-0.86
128196,1755607517930,16.83,-152.56,-20.18,788,776,786,336,875,34.48275862068966,-0.275,-0.433,-0.857
128226,1755607517960,16.71,-152.56,-20.2,791,777,785,343,874,33.333333333333336,-0.28,-0.433,-0.855
128255,1755607517989,16.65,-152.59,-20.23,790,778,785,405,882,34.48275862068966,-0.281,-0.434,-0.85
128285,1755607518019,16.78,-152.67,-20.29,789,768,787,407,875,33.333333333333336,-0.288,-0.437,-0.847
128315,1755607518049,16.93,-152.67,-20.22,793,776,784,354,878,33.333333333333336,-0.297,-0.441,-0.847
128344,1755607518078,17.12,-152.69,-20.11,792,780,782,333,876,34.48275862068966,-0.29,-0.44,-0.847
128374,1755607518108,17.32,-152.72,-20.07,789,776,786,378,873,33.333333333333336,-0.283,-0.434,-0.851
128404,1755607518138,17.34,-152.74,-20.05,792,772,783,414,877,33.333333333333336,-0.278,-0.433,-0.858
128433,1755607518168,17.06,-152.67,-20.06,788,774,782,392,865,34.48275862068966,-0.281,-0.434,-0.863
128463,1755607518197,16.83,-152.77,-20.1,793,777,786,346,873,33.333333333333336,-0.272,-0.431,-0.858
128493,1755607518227,16.85,-152.93,-20.31,788,775,785,343,875,33.333333333333336,-0.272,-0.432,-0.853
128523,1755607518257,16.81,-152.99,-20.42,790,775,788,388,876,33.333333333333336,-0.281,-0.432,-0.856
128582,1755607518317,16.48,-153.06,-20.56,791,772,781,355,878,33.333333333333336,-0.283,-0.433,-0.856
128603,1755607518336,16.41,-153.1,-20.61,792,773,785,383,874,47.61904761904762,-0.288,-0.434,-0.853
128632,1755607518366,16.33,-153.13,-20.64,789,772,784,367,876,34.48275862068966,-0.285,-0.433,-0.851
128662,1755607518396,16.4,-153.28,-20.8,792,775,784,301,876,33.333333333333336,-0.28,-0.433,-0.849
128691,1755607518425,16.61,-153.3,-20.88,791,774,785,340,879,34.48275862068966,-0.303,-0.437,-0.848
128721,1755607518455,16.74,-153.4,-20.76,792,776,788,391,872,33.333333333333336,-0.283,-0.429,-0.849
128750,1755607518484,17.28,-154.04,-21.14,791,776,785,369,882,34.48275862068966,-0.263,-0.424,-0.859
128780,1755607518514,17.79,-154.55,-21.5,792,775,786,342,872,33.333333333333336,-0.301,-0.434,-0.868
128809,1755607518543,17.01,-153.99,-21.14,786,780,786,355,874,34.48275862068966,-0.319,-0.434,-0.874
128839,1755607518573,16.3,-153.69,-20.99,791,775,783,394,876,33.333333333333336,-0.281,-0.419,-0.875
128868,1755607518602,16.43,-154.08,-21.21,788,777,785,404,872,34.48275862068966,-0.285,-0.421,-0.854
128898,1755607518632,16.53,-153.88,-21.14,791,773,785,359,879,33.333333333333336,-0.286,-0.428,-0.851
128928,1755607518662,16.57,-153.79,-21.06,792,771,787,335,878,33.333333333333336,-0.288,-0.432,-0.86
128957,1755607518692,16.53,-153.9,-20.95,793,775,786,382,880,34.48275862068966,-0.283,-0.429,-0.862
129047,1755607518781,17.46,-154.06,-20.79,792,774,782,350,874,33.333333333333336,-0.276,-0.411,-0.857
129076,1755607518810,17.76,-154.16,-20.94,790,775,787,348,878,34.48275862068966,-0.285,-0.416,-0.871
129165,1755607518899,17.16,-154.06,-20.88,786,777,787,369,877,33.333333333333336,-0.262,-0.42,-0.871
129195,1755607518929,16.97,-154.11,-20.96,794,776,784,334,880,33.333333333333336,-0.267,-0.419,-0.875
129224,1755607518958,16.93,-154.23,-21.04,790,776,786,372,879,34.48275862068966,-0.274,-0.419,-0.867
129254,1755607518988,16.99,-154.23,-21.07,792,775,785,404,869,33.333333333333336,-0.275,-0.419,-0.86
129284,1755607519018,17.1,-154.17,-21.03,785,778,785,406,876,33.333333333333336,-0.28,-0.418,-0.862
129313,1755607519048,17.21,-154.21,-21.0,792,770,786,360,875,34.48275862068966,-0.269,-0.414,-0.867
129343,1755607519077,17.43,-154.43,-21.14,793,781,789,359,873,33.333333333333336,-0.261,-0.414,-0.867
129373,1755607519107,17.56,-154.35,-21.15,788,772,785,395,877,33.333333333333336,-0.282,-0.419,-0.866
129402,1755607519136,17.63,-154.29,-21.0,791,775,788,398,874,34.48275862068966,-0.274,-0.419,-0.869
129432,1755607519166,17.83,-154.34,-20.91,788,768,787,327,881,33.333333333333336,-0.266,-0.417,-0.867
129452,1755607519186,17.9,-154.33,-20.84,792,781,789,371,874,50.0,-0.256,-0.413,-0.87
129482,1755607519216,17.88,-154.32,-20.84,787,770,785,345,869,33.333333333333336,-0.241,-0.412,-0.879
129511,1755607519245,17.62,-154.34,-20.94,788,776,786,326,864,34.48275862068966,-0.246,-0.415,-0.884
129541,1755607519275,17.32,-154.38,-20.99,792,780,781,351,878,33.333333333333336,-0.252,-0.417,-0.878
129571,1755607519305,17.28,-154.48,-20.97,791,777,786,405,880,33.333333333333336,-0.254,-0.414,-0.869
129601,1755607519335,17.45,-154.5,-20.96,790,774,786,385,878,33.333333333333336,-0.257,-0.412,-0.865
129630,1755607519365,17.61,-154.48,-20.92,792,777,786,338,870,34.48275862068966,-0.26,-0.414,-0.872
129650,1755607519385,17.66,-154.47,-20.87,786,775,787,411,874,50.0,-0.254,-0.411,-0.876
129680,1755607519414,17.77,-154.59,-20.95,787,776,786,354,883,33.333333333333336,-0.247,-0.411,-0.883
129710,1755607519444,17.4,-154.43,-20.82,792,773,783,345,877,33.333333333333336,-0.254,-0.412,-0.886
129739,1755607519474,16.9,-154.32,-20.69,792,777,794,399,873,34.48275862068966,-0.234,-0.406,-0.885
129769,1755607519503,16.7,-154.44,-20.9,792,778,790,404,879,33.333333333333336,-0.232,-0.407,-0.881
129799,1755607519533,16.41,-154.39,-20.98,793,776,791,347,875,33.333333333333336,-0.252,-0.412,-0.88
129828,1755607519562,16.22,-154.32,-20.93,791,780,785,346,873,34.48275862068966,-0.265,-0.413,-0.873
129858,1755607519592,16.37,-154.34,-20.88,788,770,787,370,878,33.333333333333336,-0.275,-0.415,-0.861
129887,1755607519622,16.65,-154.26,-20.69,791,780,783,411,869,34.48275862068966,-0.268,-0.415,-0.863
129917,1755607519651,17.53,-154.31,-20.6,790,775,789,352,877,33.333333333333336,-0.258,-0.412,-0.868
129947,1755607519681,18.1,-154.61,-20.73,791,780,785,322,880,33.333333333333336,-0.252,-0.413,-0.873
129976,1755607519710,18.6,-154.88,-20.75,794,775,783,323,878,34.48275862068966,-0.259,-0.413,-0.875
130006,1755607519740,19.44,-155.42,-20.82,790,777,785,377,878,33.333333333333336,-0.259,-0.413,-0.874
130035,1755607519770,20.47,-155.93,-20.66,792,768,784,390,871,34.48275862068966,-0.256,-0.419,-0.879
130095,1755607519829,21.16,-156.29,-19.88,790,778,783,342,874,33.333333333333336,-0.196,-0.402,-0.898
130115,1755607519849,21.03,-156.32,-19.82,792,776,784,404,876,50.0,-0.167,-0.388,-0.904
130144,1755607519879,20.79,-156.38,-19.98,791,776,786,352,878,34.48275862068966,-0.155,-0.37,-0.911
130174,1755607519908,20.15,-156.29,-20.22,786,780,788,390,876,33.333333333333336,-0.148,-0.357,-0.92
130204,1755607519938,19.1,-156.02,-20.6,790,778,783,424,870,33.333333333333336,-0.153,-0.356,-0.928
130233,1755607519968,17.69,-155.62,-20.87,786,777,788,407,876,34.48275862068966,-0.175,-0.366,-0.924
130263,1755607519997,16.3,-155.14,-20.99,792,776,788,357,872,33.333333333333336,-0.201,-0.38,-0.907
130293,1755607520027,15.34,-154.66,-20.93,790,780,786,344,877,33.333333333333336,-0.222,-0.393,-0.889
130322,1755607520056,15.19,-154.46,-20.79,792,769,786,408,874,34.48275862068966,-0.229,-0.401,-0.88
130352,1755607520086,15.56,-154.57,-20.71,791,774,787,423,874,33.333333333333336,-0.242,-0.41,-0.877
130381,1755607520115,15.91,-154.56,-20.53,789,769,786,381,878,34.48275862068966,-0.243,-0.414,-0.879
130411,1755607520145,16.23,-154.76,-20.48,790,774,788,347,875,33.333333333333336,-0.232,-0.414,-0.887
130441,1755607520175,16.31,-155.0,-20.47,794,776,787,376,872,33.333333333333336,-0.232,-0.411,-0.889
130470,1755607520204,16.23,-155.15,-20.41,791,780,782,421,877,34.48275862068966,-0.221,-0.406,-0.885
130500,1755607520234,16.13,-155.32,-20.44,788,771,785,387,879,33.333333333333336,-0.203,-0.399,-0.885
130529,1755607520263,15.77,-155.23,-20.52,793,770,782,320,877,34.48275862068966,-0.205,-0.395,-0.892
130559,1755607520293,15.06,-155.15,-20.63,791,775,783,348,874,33.333333333333336,-0.206,-0.393,-0.9
130588,1755607520322,14.2,-155.19,-20.82,786,776,787,382,878,34.48275862068966,-0.206,-0.391,-0.897
130618,1755607520352,13.45,-155.23,-21.12,792,776,781,387,873,33.333333333333336,-0.22,-0.395,-0.887
130648,1755607520382,12.92,-155.23,-21.38,788,775,786,335,869,33.333333333333336,-0.239,-0.399,-0.874
130677,1755607520411,12.8,-155.21,-21.57,787,776,785,334,877,34.48275862068966,-0.265,-0.406,-0.861
130707,1755607520441,13.05,-155.12,-21.59,788,774,787,383,877,33.333333333333336,-0.285,-0.409,-0.855
130736,1755607520471,13.63,-155.12,-21.46,788,775,786,406,874,34.48275862068966,-0.291,-0.412,-0.857
130766,1755607520500,14.17,-155.1,-21.25,789,771,787,404,873,33.333333333333336,-0.283,-0.412,-0.864
130796,1755607520530,14.42,-154.87,-20.98,786,774,787,300,873,33.333333333333336,-0.286,-0.415,-0.873
130825,1755607520560,14.3,-154.53,-20.56,793,775,786,352,878,34.48275862068966,-0.28,-0.414,-0.879
130855,1755607520589,13.95,-154.18,-20.12,789,778,792,399,876,33.333333333333336,-0.27,-0.412,-0.876
130885,1755607520619,13.68,-153.83,-19.79,793,779,780,350,872,33.333333333333336,-0.263,-0.415,-0.868
130914,1755607520649,13.47,-153.36,-19.43,788,770,785,329,874,34.48275862068966,-0.258,-0.412,-0.861
130944,1755607520678,13.38,-152.96,-19.29,788,780,788,334,877,33.333333333333336,-0.252,-0.411,-0.864
130974,1755607520709,13.27,-152.76,-19.24,791,780,784,387,874,33.333333333333336,-0.254,-0.413,-0.867
130994,1755607520728,13.2,-152.69,-19.25,787,776,788,365,875,50.0,-0.253,-0.415,-0.87
131024,1755607520758,13.06,-152.92,-19.48,795,773,786,387,874,33.333333333333336,-0.253,-0.423,-0.872
131053,1755607520787,12.97,-153.08,-19.67,792,775,789,401,877,34.48275862068966,-0.284,-0.425,-0.862
131083,1755607520817,13.05,-153.26,-19.7,791,779,782,375,876,33.333333333333336,-0.281,-0.422,-0.847
131112,1755607520847,13.85,-153.63,-19.95,790,781,785,333,880,34.48275862068966,-0.294,-0.429,-0.838
131142,1755607520876,14.62,-153.54,-19.8,791,780,784,345,879,33.333333333333336,-0.31,-0.439,-0.842
131192,1755607520926,15.06,-153.07,-19.1,791,772,786,340,878,50.0,-0.256,-0.426,-0.871
131221,1755607520955,14.8,-152.98,-19.0,790,769,787,393,876,34.48275862068966,-0.241,-0.424,-0.88
131251,1755607520985,14.05,-152.73,-18.93,794,772,784,390,873,33.333333333333336,-0.243,-0.426,-0.882
131280,1755607521014,13.11,-152.23,-18.81,788,776,785,348,869,34.48275862068966,-0.253,-0.429,-0.876
131310,1755607521044,12.22,-152.0,-18.75,790,776,781,352,868,33.333333333333336,-0.253,-0.429,-0.867
131340,1755607521074,11.84,-152.2,-18.94,786,778,788,376,873,33.333333333333336,-0.261,-0.433,-0.856
131360,1755607521094,11.78,-152.32,-19.09,789,771,779,351,877,50.0,-0.286,-0.438,-0.844
131389,1755607521124,11.73,-152.31,-19.15,789,775,787,358,878,34.48275862068966,-0.307,-0.439,-0.836
131419,1755607521153,11.98,-152.35,-19.25,788,769,784,404,872,33.333333333333336,-0.32,-0.442,-0.83
131449,1755607521183,12.47,-152.44,-19.27,792,776,786,333,868,33.333333333333336,-0.329,-0.447,-0.825
131478,1755607521212,13.11,-152.54,-19.14,791,772,782,334,877,34.48275862068966,-0.331,-0.447,-0.825
131508,1755607521243,13.65,-152.48,-18.97,787,772,785,362,871,33.333333333333336,-0.322,-0.444,-0.83
131528,1755607521263,14.01,-152.41,-18.88,789,782,784,357,876,50.0,-0.313,-0.446,-0.838
131548,1755607521282,14.27,-152.34,-18.76,787,776,788,401,880,50.0,-0.304,-0.445,-0.844
131578,1755607521313,14.39,-152.26,-18.62,792,769,786,358,880,33.333333333333336,-0.288,-0.441,-0.851
131598,1755607521332,14.39,-152.24,-18.59,791,776,782,393,875,50.0,-0.274,-0.438,-0.856
131628,1755607521362,14.19,-152.23,-18.66,787,775,785,344,875,33.333333333333336,-0.274,-0.439,-0.858
131657,1755607521392,13.87,-152.18,-18.67,791,780,783,382,875,34.48275862068966,-0.276,-0.441,-0.855
131687,1755607521421,13.62,-152.12,-18.73,793,775,785,399,876,33.333333333333336,-0.284,-0.443,-0.851
131717,1755607521451,13.39,-152.09,-18.74,793,775,789,379,885,33.333333333333336,-0.292,-0.442,-0.848
