timestamp_ms,recv_timestamp_ms,pitch,roll,yaw,flex1,flex2,flex3,flex4,flex5,sampling_hz,accel_x,accel_y,accel_z
34684,1755607938175,14.18,-44.55,-18.28,786,779,786,359,860,34.48275862068966,-0.241,-0.682,0.694
34714,1755607938177,14.24,-44.53,-18.25,792,771,784,400,864,33.333333333333336,-0.242,-0.682,0.694
34744,1755607938179,14.4,-44.38,-18.18,784,774,786,393,859,33.333333333333336,-0.244,-0.681,0.692
34773,1755607938181,14.26,-44.43,-18.2,782,779,777,349,852,34.48275862068966,-0.243,-0.682,0.69
34803,1755607938183,14.31,-44.45,-18.15,785,770,783,360,861,33.333333333333336,-0.243,-0.681,0.692
34833,1755607938185,14.36,-44.46,-18.13,788,775,784,409,862,33.333333333333336,-0.243,-0.68,0.694
34892,1755607938189,14.28,-44.45,-18.15,785,777,784,359,859,33.333333333333336,-0.24,-0.677,0.697
34921,1755607938191,14.33,-44.45,-18.17,781,779,784,338,861,34.48275862068966,-0.239,-0.679,0.696
34951,1755607938193,14.2,-44.48,-18.22,789,778,785,376,862,33.333333333333336,-0.24,-0.683,0.696
34981,1755607938195,14.25,-44.41,-18.18,787,779,784,417,869,33.333333333333336,-0.242,-0.685,0.697
35070,1755607938202,14.48,-44.16,-18.07,786,779,782,333,860,33.333333333333336,-0.244,-0.679,0.693
35100,1755607938203,14.41,-44.26,-18.1,784,781,784,408,861,33.333333333333336,-0.243,-0.677,0.689
35129,1755607938205,14.32,-44.34,-18.1,791,770,778,425,865,34.48275862068966,-0.244,-0.676,0.691
35158,1755607938207,14.38,-44.34,-18.1,786,774,785,355,862,34.48275862068966,-0.244,-0.676,0.694
35188,1755607938209,14.27,-44.35,-18.17,782,775,780,337,861,33.333333333333336,-0.244,-0.678,0.695
35217,1755607938212,14.28,-44.38,-18.15,786,770,782,381,861,34.48275862068966,-0.244,-0.68,0.696
35247,1755607938213,14.4,-44.33,-18.11,781,773,778,424,857,33.333333333333336,-0.243,-0.681,0.697
35276,1755607938215,14.36,-44.3,-18.12,786,771,786,402,864,34.48275862068966,-0.243,-0.68,0.696
35306,1755607938217,14.35,-44.34,-18.11,787,778,784,355,855,33.333333333333336,-0.242,-0.679,0.692
35336,1755607938220,14.42,-44.48,-18.05,787,777,784,327,863,33.333333333333336,-0.244,-0.679,0.689
35356,1755607938222,14.43,-44.59,-18.04,789,774,785,357,861,50.0,-0.246,-0.68,0.69
35385,1755607938224,14.3,-44.64,-18.04,788,773,787,358,860,34.48275862068966,-0.248,-0.682,0.694
35415,1755607938226,14.24,-44.67,-18.01,785,776,786,416,859,33.333333333333336,-0.247,-0.682,0.694
35445,1755607938228,14.27,-44.75,-17.95,785,777,786,406,865,33.333333333333336,-0.245,-0.683,0.695
35475,1755607938229,14.26,-44.83,-17.96,788,774,779,346,859,33.333333333333336,-0.243,-0.684,0.695
35504,1755607938231,14.23,-44.82,-17.97,787,769,778,343,857,34.48275862068966,-0.242,-0.683,0.695
35534,1755607938233,14.31,-44.73,-17.96,787,776,780,386,857,33.333333333333336,-0.244,-0.684,0.695
35564,1755607938235,14.27,-44.65,-17.98,788,773,779,415,866,33.333333333333336,-0.245,-0.685,0.692
35593,1755607938237,14.26,-44.66,-17.97,785,771,786,386,864,34.48275862068966,-0.245,-0.683,0.689
35623,1755607938239,14.37,-44.63,-17.92,789,773,779,346,865,33.333333333333336,-0.246,-0.683,0.69
35652,1755607938241,14.41,-44.55,-17.91,783,770,779,356,864,34.48275862068966,-0.247,-0.683,0.691
35682,1755607938243,14.3,-44.57,-17.95,788,769,783,417,860,33.333333333333336,-0.245,-0.681,0.689
35711,1755607938245,14.33,-44.64,-17.94,787,767,782,391,865,34.48275862068966,-0.245,-0.681,0.69
35741,1755607938247,14.39,-44.61,-17.93,783,773,782,340,862,33.333333333333336,-0.246,-0.683,0.692
35770,1755607938249,14.34,-44.6,-17.95,789,778,779,352,862,34.48275862068966,-0.245,-0.681,0.691
35800,1755607938252,14.34,-44.66,-17.95,785,779,782,413,864,33.333333333333336,-0.245,-0.683,0.691
35829,1755607938254,14.41,-44.69,-17.93,777,778,778,429,864,34.48275862068966,-0.246,-0.684,0.692
35889,1755607938258,14.33,-44.7,-17.96,786,768,782,350,863,33.333333333333336,-0.247,-0.683,0.692
35918,1755607938260,14.42,-44.63,-17.93,789,776,782,371,864,34.48275862068966,-0.247,-0.683,0.693
35948,1755607938262,14.45,-44.55,-17.91,786,777,785,403,863,33.333333333333336,-0.247,-0.683,0.692
35977,1755607938264,14.45,-44.48,-17.89,785,780,779,395,860,34.48275862068966,-0.247,-0.684,0.693
36007,1755607938266,14.53,-44.42,-17.85,782,771,783,352,870,33.333333333333336,-0.247,-0.684,0.693
36036,1755607938268,14.59,-44.37,-17.82,784,780,785,339,863,34.48275862068966,-0.247,-0.683,0.692
36066,1755607938270,14.58,-44.37,-17.81,789,765,783,381,860,33.333333333333336,-0.248,-0.681,0.689
36095,1755607938272,14.54,-44.45,-17.79,785,774,783,409,854,34.48275862068966,-0.248,-0.679,0.687
36125,1755607938274,14.62,-44.5,-17.77,786,776,782,368,859,33.333333333333336,-0.251,-0.675,0.686
36154,1755607938276,14.51,-44.55,-17.82,784,775,783,336,857,34.48275862068966,-0.253,-0.668,0.684
36184,1755607938286,14.4,-44.63,-17.9,787,774,783,375,856,33.333333333333336,-0.249,-0.67,0.686
36204,1755607938306,14.39,-44.69,-17.95,784,771,785,336,863,50.0,-0.246,-0.678,0.691
36234,1755607938335,14.46,-44.7,-17.97,783,770,779,365,863,33.333333333333336,-0.245,-0.69,0.696
36263,1755607938365,14.5,-44.67,-17.95,789,772,785,389,861,34.48275862068966,-0.244,-0.697,0.697
36293,1755607938394,14.59,-44.62,-17.88,789,774,783,370,862,33.333333333333336,-0.244,-0.697,0.692
36322,1755607938423,14.64,-44.64,-17.83,788,775,782,347,864,34.48275862068966,-0.246,-0.689,0.685
36352,1755607938453,14.59,-44.73,-17.83,786,779,781,368,858,33.333333333333336,-0.249,-0.681,0.681
36381,1755607938482,14.55,-44.75,-17.83,786,773,777,412,860,34.48275862068966,-0.251,-0.676,0.684
36440,1755607938541,14.51,-44.81,-17.84,786,773,783,345,858,34.48275862068966,-0.249,-0.68,0.694
36470,1755607938571,14.57,-44.8,-17.82,788,778,781,355,858,33.333333333333336,-0.247,-0.682,0.697
36490,1755607938591,14.61,-44.75,-17.81,788,779,783,374,864,50.0,-0.245,-0.685,0.696
36519,1755607938620,14.62,-44.73,-17.79,787,774,778,374,865,34.48275862068966,-0.246,-0.685,0.691
36549,1755607938650,14.69,-44.74,-17.74,787,778,780,422,864,33.333333333333336,-0.248,-0.685,0.689
36608,1755607938710,14.74,-44.72,-17.67,786,774,786,353,864,33.333333333333336,-0.254,-0.681,0.685
36638,1755607938739,14.82,-44.72,-17.64,788,773,783,340,864,33.333333333333336,-0.255,-0.681,0.685
36667,1755607938769,14.88,-44.73,-17.61,787,775,784,383,857,34.48275862068966,-0.255,-0.682,0.685
36697,1755607938799,14.84,-44.76,-17.59,787,773,783,420,866,33.333333333333336,-0.255,-0.683,0.684
36727,1755607938828,14.81,-44.8,-17.57,789,777,785,392,863,33.333333333333336,-0.253,-0.684,0.686
36786,1755607938887,14.9,-44.74,-17.48,787,776,784,355,865,33.333333333333336,-0.257,-0.683,0.688
36816,1755607938917,15.01,-44.67,-17.39,787,769,786,406,863,33.333333333333336,-0.258,-0.682,0.69
36845,1755607938946,15.17,-44.49,-17.29,788,776,785,373,864,34.48275862068966,-0.258,-0.682,0.69
36874,1755607938976,15.24,-44.41,-17.26,788,773,787,349,860,34.48275862068966,-0.258,-0.679,0.687
36904,1755607939005,15.34,-44.37,-17.24,790,766,782,321,860,33.333333333333336,-0.259,-0.677,0.685
36934,1755607939035,15.34,-44.42,-17.25,787,777,783,370,866,33.333333333333336,-0.258,-0.677,0.682
36963,1755607939065,15.31,-44.46,-17.26,786,776,783,407,860,34.48275862068966,-0.26,-0.682,0.684
36993,1755607939094,15.29,-44.44,-17.25,785,778,781,378,859,33.333333333333336,-0.263,-0.685,0.688
37022,1755607939124,15.28,-44.43,-17.19,782,769,778,327,869,34.48275862068966,-0.266,-0.682,0.69
37052,1755607939153,15.36,-44.44,-17.09,788,771,784,352,864,33.333333333333336,-0.266,-0.676,0.692
37081,1755607939183,15.43,-44.42,-17.03,786,777,782,412,861,34.48275862068966,-0.267,-0.67,0.691
37111,1755607939212,15.43,-44.39,-17.02,784,769,784,394,863,33.333333333333336,-0.268,-0.662,0.685
37141,1755607939242,15.37,-44.41,-17.07,787,775,780,349,860,33.333333333333336,-0.27,-0.66,0.68
37170,1755607939272,15.23,-44.51,-17.16,782,774,779,328,867,34.48275862068966,-0.27,-0.664,0.679
37200,1755607939301,15.11,-44.61,-17.22,787,775,782,405,861,33.333333333333336,-0.27,-0.669,0.68
37230,1755607939331,15.1,-44.64,-17.24,784,776,784,408,865,33.333333333333336,-0.27,-0.676,0.684
37259,1755607939361,15.05,-44.67,-17.27,788,773,785,373,865,34.48275862068966,-0.267,-0.68,0.687
37288,1755607939390,14.98,-44.71,-16.82,784,777,781,342,865,34.48275862068966,-0.265,-0.678,0.689
37318,1755607939419,15.01,-44.67,-16.8,785,777,782,372,864,33.333333333333336,-0.26,-0.676,0.693
37347,1755607939449,15.05,-44.64,-16.84,788,769,783,414,863,34.48275862068966,-0.258,-0.676,0.694
37377,1755607939478,15.04,-44.61,-16.9,789,773,785,401,866,33.333333333333336,-0.257,-0.675,0.693
37406,1755607939508,15.05,-44.6,-16.96,786,775,783,354,864,34.48275862068966,-0.257,-0.675,0.693
37436,1755607939537,15.12,-44.55,-17.01,787,777,777,354,863,33.333333333333336,-0.258,-0.675,0.691
37465,1755607939567,15.07,-44.59,-17.09,789,773,787,414,862,34.48275862068966,-0.257,-0.676,0.69
37583,1755607939685,15.26,-44.69,-17.24,781,774,786,399,861,34.48275862068966,-0.26,-0.678,0.688
37613,1755607939714,15.26,-44.73,-17.28,786,779,782,419,860,33.333333333333336,-0.262,-0.684,0.689
37642,1755607939744,15.25,-44.76,-17.26,790,776,783,384,866,34.48275862068966,-0.265,-0.686,0.687
37672,1755607939773,15.17,-44.81,-17.21,783,777,780,345,869,33.333333333333336,-0.262,-0.685,0.685
37701,1755607939803,15.23,-44.81,-17.14,789,779,783,356,864,34.48275862068966,-0.263,-0.683,0.684
37731,1755607939833,15.2,-44.78,-17.16,786,776,783,394,863,33.333333333333336,-0.26,-0.682,0.683
37761,1755607939862,15.14,-44.75,-16.7,786,777,784,392,863,33.333333333333336,-0.259,-0.681,0.684
37820,1755607939921,15.13,-44.79,-16.72,787,772,784,343,865,33.333333333333336,-0.259,-0.68,0.687
37849,1755607939950,15.13,-44.74,-16.73,782,778,779,399,863,34.48275862068966,-0.259,-0.679,0.686
37879,1755607939980,15.15,-44.74,-16.74,785,776,785,398,862,33.333333333333336,-0.258,-0.682,0.685
37908,1755607940010,15.12,-44.75,-16.74,787,773,784,367,861,34.48275862068966,-0.259,-0.685,0.687
37938,1755607940039,15.12,-44.74,-16.71,787,777,786,349,864,33.333333333333336,-0.259,-0.686,0.688
37967,1755607940069,15.16,-44.74,-16.68,785,773,782,394,861,34.48275862068966,-0.259,-0.685,0.688
37997,1755607940098,15.13,-44.72,-16.69,782,778,787,429,865,33.333333333333336,-0.258,-0.683,0.688
38056,1755607940157,15.21,-44.67,-16.7,785,767,785,354,862,33.333333333333336,-0.256,-0.68,0.687
38085,1755607940187,15.18,-44.69,-16.75,789,773,782,353,860,34.48275862068966,-0.256,-0.679,0.684
38115,1755607940216,15.17,-44.72,-16.78,785,774,783,418,859,33.333333333333336,-0.257,-0.678,0.684
38144,1755607940246,15.17,-44.72,-16.81,792,776,785,412,862,34.48275862068966,-0.258,-0.677,0.684
38174,1755607940275,15.15,-44.69,-16.87,782,776,780,353,861,33.333333333333336,-0.257,-0.678,0.684
38203,1755607940305,15.15,-44.68,-16.92,785,773,783,336,862,34.48275862068966,-0.258,-0.682,0.685
38233,1755607940334,15.12,-44.73,-16.94,785,771,780,403,858,33.333333333333336,-0.258,-0.684,0.688
38292,1755607940393,15.11,-44.66,-16.96,784,775,787,369,860,33.333333333333336,-0.256,-0.683,0.687
38321,1755607940423,15.05,-44.75,-16.98,783,777,781,332,867,34.48275862068966,-0.256,-0.682,0.684
38351,1755607940453,15.07,-44.82,-16.97,784,768,786,390,857,33.333333333333336,-0.257,-0.682,0.685
38381,1755607940482,15.13,-44.76,-16.95,782,776,779,419,862,33.333333333333336,-0.257,-0.683,0.688
38410,1755607940512,15.11,-44.71,-16.96,788,776,782,391,865,34.48275862068966,-0.256,-0.684,0.688
38440,1755607940541,15.1,-44.73,-16.96,783,774,782,345,861,33.333333333333336,-0.254,-0.684,0.687
38469,1755607940571,15.21,-44.67,-16.91,787,779,778,335,864,34.48275862068966,-0.254,-0.684,0.688
38499,1755607940600,15.26,-44.55,-16.89,793,774,784,386,862,33.333333333333336,-0.256,-0.683,0.687
38529,1755607940630,15.23,-44.47,-16.9,783,767,782,416,865,33.333333333333336,-0.255,-0.681,0.685
38558,1755607940660,15.2,-44.53,-16.91,787,780,785,362,861,34.48275862068966,-0.255,-0.68,0.685
38578,1755607940680,15.25,-44.56,-16.91,784,782,784,396,852,50.0,-0.256,-0.679,0.685
38608,1755607940709,15.19,-44.64,-16.94,784,778,787,352,859,33.333333333333336,-0.255,-0.679,0.686
38637,1755607940739,15.22,-44.57,-16.93,785,771,782,348,862,34.48275862068966,-0.256,-0.68,0.688
38667,1755607940768,15.21,-44.52,-16.97,786,776,781,402,863,33.333333333333336,-0.255,-0.679,0.686
38697,1755607940798,15.21,-44.52,-16.96,790,769,783,414,865,33.333333333333336,-0.256,-0.68,0.686
38726,1755607940828,15.23,-44.53,-16.97,788,776,780,407,862,34.48275862068966,-0.257,-0.68,0.686
38756,1755607940857,15.22,-44.55,-16.97,787,776,787,351,860,33.333333333333336,-0.257,-0.68,0.685
38785,1755607940887,15.17,-44.54,-16.99,787,771,778,360,861,34.48275862068966,-0.258,-0.681,0.686
38815,1755607940916,15.15,-44.56,-17.0,785,767,781,419,865,33.333333333333336,-0.257,-0.68,0.685
38844,1755607940946,15.06,-44.65,-17.02,782,776,780,415,862,34.48275862068966,-0.257,-0.681,0.684
38874,1755607940975,15.04,-44.69,-17.03,788,774,785,352,864,33.333333333333336,-0.255,-0.681,0.686
38903,1755607941005,15.12,-44.58,-17.0,785,772,782,347,865,34.48275862068966,-0.254,-0.68,0.689
38933,1755607941034,15.16,-44.56,-17.03,785,776,784,403,859,33.333333333333336,-0.253,-0.681,0.688
38962,1755607941064,15.08,-44.62,-17.06,785,768,782,416,864,34.48275862068966,-0.253,-0.682,0.687
38992,1755607941094,15.14,-44.56,-17.03,782,774,784,374,859,33.333333333333336,-0.254,-0.682,0.687
39022,1755607941123,15.17,-44.54,-17.04,782,774,783,341,866,33.333333333333336,-0.254,-0.68,0.685
39051,1755607941152,15.1,-44.58,-17.07,781,779,782,333,861,34.48275862068966,-0.255,-0.679,0.685
39081,1755607941182,15.15,-44.57,-17.06,784,776,786,402,860,33.333333333333336,-0.255,-0.679,0.686
39110,1755607941212,15.11,-44.56,-17.09,785,772,786,395,855,34.48275862068966,-0.255,-0.68,0.687
39140,1755607941241,15.03,-44.59,-17.13,784,775,782,346,858,33.333333333333336,-0.254,-0.682,0.689
39169,1755607941271,15.12,-44.55,-17.1,785,774,783,342,861,34.48275862068966,-0.254,-0.681,0.691
39199,1755607941300,15.19,-44.5,-17.09,784,771,786,397,854,33.333333333333336,-0.253,-0.68,0.691
39228,1755607941330,15.2,-44.45,-17.11,783,776,780,424,865,34.48275862068966,-0.253,-0.68,0.691
39258,1755607941359,15.22,-44.41,-17.14,786,773,784,374,857,33.333333333333336,-0.254,-0.68,0.688
39287,1755607941389,15.15,-44.47,-17.18,787,780,783,350,861,34.48275862068966,-0.255,-0.683,0.685
39347,1755607941448,15.18,-44.47,-17.11,783,769,783,408,862,33.333333333333336,-0.258,-0.684,0.688
39376,1755607941477,15.14,-44.49,-17.1,790,775,782,388,859,34.48275862068966,-0.257,-0.685,0.689
39406,1755607941507,15.08,-44.57,-17.05,785,775,784,343,859,33.333333333333336,-0.256,-0.688,0.688
39435,1755607941536,15.06,-44.64,-16.98,789,772,786,359,859,34.48275862068966,-0.257,-0.685,0.685
39464,1755607941566,15.08,-44.59,-16.88,787,774,778,409,862,34.48275862068966,-0.26,-0.676,0.682
39494,1755607941595,15.07,-44.55,-16.87,787,776,781,416,859,33.333333333333336,-0.26,-0.67,0.68
39523,1755607941625,14.93,-44.63,-16.92,783,775,781,346,862,34.48275862068966,-0.258,-0.676,0.682
39553,1755607941655,14.84,-44.7,-16.91,789,775,783,346,861,33.333333333333336,-0.256,-0.681,0.687
39583,1755607941684,14.9,-44.73,-16.85,786,774,783,348,867,33.333333333333336,-0.252,-0.681,0.692
39612,1755607941714,14.87,-44.75,-16.85,788,777,781,397,861,34.48275862068966,-0.25,-0.678,0.694
39671,1755607941772,14.91,-44.67,-16.92,786,773,785,332,858,34.48275862068966,-0.25,-0.677,0.691
39701,1755607941802,14.95,-44.64,-16.95,784,779,785,354,865,33.333333333333336,-0.253,-0.68,0.689
39730,1755607941831,14.91,-44.68,-16.97,789,774,783,417,861,34.48275862068966,-0.254,-0.684,0.686
39759,1755607941861,14.95,-44.68,-16.95,782,776,787,392,859,34.48275862068966,-0.255,-0.686,0.688
39789,1755607941891,15.03,-44.65,-16.92,785,776,784,339,861,33.333333333333336,-0.254,-0.686,0.69
39819,1755607941920,15.02,-44.63,-16.91,785,778,779,343,860,33.333333333333336,-0.253,-0.683,0.69
39849,1755607941950,15.01,-44.64,-16.89,787,775,785,408,865,33.333333333333336,-0.253,-0.68,0.691
39908,1755607942010,15.05,-44.59,-16.92,782,767,786,376,861,33.333333333333336,-0.25,-0.679,0.694
39938,1755607942039,15.05,-44.55,-16.93,787,779,784,354,864,33.333333333333336,-0.254,-0.681,0.692
39967,1755607942069,15.1,-44.53,-16.89,786,775,785,390,869,34.48275862068966,-0.257,-0.678,0.689
39997,1755607942098,15.06,-44.52,-16.89,785,776,784,408,866,33.333333333333336,-0.259,-0.674,0.684
40026,1755607942128,15.0,-44.55,-16.9,784,770,780,394,865,34.48275862068966,-0.26,-0.673,0.679
40056,1755607942157,14.96,-44.62,-16.92,785,770,785,339,860,33.333333333333336,-0.262,-0.676,0.677
40085,1755607942187,14.91,-44.77,-16.92,788,768,785,351,859,34.48275862068966,-0.261,-0.68,0.681
40115,1755607942217,14.92,-44.89,-16.87,786,775,782,416,861,33.333333333333336,-0.26,-0.681,0.686
40145,1755607942246,14.95,-44.92,-16.83,789,771,783,413,858,33.333333333333336,-0.258,-0.678,0.688
40174,1755607942276,14.96,-44.94,-16.85,788,775,780,366,858,34.48275862068966,-0.256,-0.677,0.687
40204,1755607942305,14.96,-45.01,-16.89,788,774,784,299,859,33.333333333333336,-0.253,-0.68,0.685
40263,1755607942364,15.18,-45.08,-16.89,784,774,781,408,863,33.333333333333336,-0.249,-0.688,0.689
40292,1755607942394,15.23,-45.09,-16.95,784,772,782,380,860,34.48275862068966,-0.249,-0.686,0.688
40322,1755607942424,15.35,-45.07,-16.99,788,775,787,342,860,33.333333333333336,-0.253,-0.685,0.687
40352,1755607942454,15.47,-44.99,-17.05,786,776,778,362,865,33.333333333333336,-0.26,-0.686,0.686
40382,1755607942483,15.44,-44.82,-17.09,790,779,778,420,856,33.333333333333336,-0.264,-0.687,0.682
40411,1755607942513,15.35,-44.78,-17.11,790,775,779,443,863,34.48275862068966,-0.265,-0.687,0.679
40441,1755607942542,15.32,-44.76,-17.1,786,767,781,381,866,33.333333333333336,-0.263,-0.685,0.678
40470,1755607942571,15.28,-44.75,-17.1,785,775,779,357,863,34.48275862068966,-0.259,-0.683,0.676
40499,1755607942601,15.22,-44.8,-17.17,783,778,781,397,859,34.48275862068966,-0.256,-0.682,0.677
40529,1755607942631,15.23,-44.83,-17.19,787,775,784,423,862,33.333333333333336,-0.256,-0.683,0.681
40559,1755607942660,15.28,-44.8,-17.2,781,767,781,381,862,33.333333333333336,-0.257,-0.686,0.685
40588,1755607942690,15.28,-44.81,-17.2,785,774,784,337,863,34.48275862068966,-0.257,-0.688,0.687
40618,1755607942719,15.32,-44.78,-17.16,787,772,782,355,864,33.333333333333336,-0.257,-0.69,0.689
40648,1755607942749,15.37,-44.7,-17.11,784,772,783,410,865,33.333333333333336,-0.255,-0.689,0.689
40677,1755607942779,15.4,-44.62,-17.09,782,773,784,403,861,34.48275862068966,-0.255,-0.685,0.687
40706,1755607942808,15.39,-44.62,-17.11,783,776,778,329,864,34.48275862068966,-0.256,-0.679,0.682
40736,1755607942837,15.37,-44.68,-17.14,786,779,785,287,862,33.333333333333336,-0.258,-0.676,0.679
40765,1755607942867,15.33,-44.77,-17.2,787,773,785,362,860,34.48275862068966,-0.259,-0.678,0.68
40795,1755607942897,15.28,-44.75,-17.24,788,770,783,374,859,33.333333333333336,-0.26,-0.682,0.684
40855,1755607942956,15.24,-45.16,-17.24,785,773,783,314,864,33.333333333333336,-0.255,-0.688,0.685
40884,1755607942986,15.28,-45.13,-17.21,788,776,778,350,864,34.48275862068966,-0.254,-0.685,0.684
40914,1755607943015,15.26,-45.13,-17.24,785,772,783,407,861,33.333333333333336,-0.252,-0.68,0.683
40944,1755607943045,15.22,-45.16,-17.29,783,773,783,375,864,33.333333333333336,-0.255,-0.678,0.683
40973,1755607943075,15.25,-45.17,-17.32,784,778,782,321,863,34.48275862068966,-0.257,-0.679,0.686
41003,1755607943105,15.22,-45.17,-17.35,780,769,782,333,859,33.333333333333336,-0.257,-0.681,0.686
41033,1755607943135,15.24,-45.14,-17.33,787,776,779,380,866,33.333333333333336,-0.257,-0.683,0.684
41092,1755607943193,15.28,-45.14,-17.34,787,770,781,368,865,34.48275862068966,-0.254,-0.687,0.684
41122,1755607943223,15.25,-45.14,-17.35,786,773,784,329,865,33.333333333333336,-0.254,-0.688,0.683
41151,1755607943252,15.26,-45.16,-17.33,785,776,786,352,860,34.48275862068966,-0.254,-0.686,0.684
41181,1755607943282,15.27,-45.16,-17.33,782,770,785,399,861,33.333333333333336,-0.255,-0.684,0.685
41210,1755607943312,15.29,-45.12,-17.33,781,766,784,391,854,34.48275862068966,-0.256,-0.682,0.686
41240,1755607943342,15.27,-45.09,-17.35,784,766,783,341,865,33.333333333333336,-0.256,-0.682,0.684
41270,1755607943371,15.29,-45.09,-17.35,782,773,783,348,858,33.333333333333336,-0.255,-0.683,0.683
41299,1755607943400,15.26,-45.1,-17.36,786,780,783,401,855,34.48275862068966,-0.256,-0.686,0.682
41328,1755607943430,15.23,-45.11,-17.33,786,772,780,423,863,34.48275862068966,-0.256,-0.687,0.682
41358,1755607943459,15.24,-45.1,-17.3,780,774,783,371,860,33.333333333333336,-0.256,-0.689,0.685
41387,1755607943489,15.27,-45.03,-17.25,792,776,786,346,862,34.48275862068966,-0.257,-0.688,0.686
41417,1755607943518,15.25,-45.02,-17.22,786,774,779,387,855,33.333333333333336,-0.257,-0.686,0.685
41446,1755607943548,15.24,-45.0,-17.18,785,768,783,426,861,34.48275862068966,-0.257,-0.684,0.684
41476,1755607943578,15.2,-45.02,-17.16,786,775,783,382,858,33.333333333333336,-0.256,-0.681,0.683
41496,1755607943598,15.16,-45.05,-17.14,787,772,783,389,861,50.0,-0.256,-0.68,0.683
41526,1755607943627,15.13,-45.09,-17.14,784,773,779,376,858,33.333333333333336,-0.255,-0.68,0.685
41555,1755607943656,15.17,-45.05,-17.11,782,779,784,337,864,34.48275862068966,-0.256,-0.682,0.688
41584,1755607943686,15.18,-45.01,-17.1,787,771,787,347,861,34.48275862068966,-0.256,-0.685,0.687
41614,1755607943716,15.15,-45.03,-17.08,786,775,783,405,859,33.333333333333336,-0.256,-0.684,0.685
41644,1755607943745,15.14,-45.05,-17.06,787,775,787,393,859,33.333333333333336,-0.256,-0.681,0.686
41673,1755607943775,15.15,-45.02,-17.05,786,767,781,351,863,34.48275862068966,-0.255,-0.677,0.685
41732,1755607943834,15.14,-45.0,-17.14,786,769,779,370,862,33.333333333333336,-0.254,-0.677,0.685
41762,1755607943863,15.17,-45.04,-17.17,786,777,784,411,860,33.333333333333336,-0.254,-0.679,0.685
41791,1755607943893,15.17,-45.07,-17.19,786,780,787,354,861,34.48275862068966,-0.255,-0.682,0.685
41821,1755607943923,15.19,-45.05,-17.21,783,772,785,328,864,33.333333333333336,-0.257,-0.683,0.685
41850,1755607943952,15.26,-45.03,-17.21,784,777,780,360,863,34.48275862068966,-0.258,-0.683,0.684
41880,1755607943981,15.3,-45.02,-17.2,789,773,783,409,865,33.333333333333336,-0.259,-0.684,0.683
41909,1755607944011,15.29,-45.04,-17.22,783,772,785,387,861,34.48275862068966,-0.259,-0.687,0.681
41939,1755607944041,15.28,-45.08,-17.2,787,773,778,334,861,33.333333333333336,-0.259,-0.69,0.682
41969,1755607944070,15.37,-45.1,-17.15,784,778,785,349,866,33.333333333333336,-0.259,-0.693,0.682
41998,1755607944100,15.43,-45.04,-17.09,787,779,786,389,860,34.48275862068966,-0.261,-0.693,0.679
42028,1755607944129,15.33,-44.99,-17.04,786,771,785,401,858,33.333333333333336,-0.264,-0.685,0.678
42057,1755607944159,15.24,-45.02,-16.98,783,779,786,373,856,34.48275862068966,-0.261,-0.674,0.679
42087,1755607944188,15.23,-45.06,-16.97,783,768,784,351,857,33.333333333333336,-0.256,-0.671,0.683
42116,1755607944218,15.2,-45.11,-17.01,786,776,781,398,864,34.48275862068966,-0.252,-0.673,0.686
42146,1755607944248,15.2,-45.1,-17.08,787,775,782,414,857,33.333333333333336,-0.252,-0.679,0.689
42176,1755607944277,15.25,-45.06,-17.1,786,774,777,404,861,33.333333333333336,-0.253,-0.684,0.688
42205,1755607944307,15.27,-45.07,-17.11,782,777,782,331,860,34.48275862068966,-0.256,-0.685,0.685
42235,1755607944337,15.28,-45.1,-17.12,789,771,782,342,861,33.333333333333336,-0.257,-0.684,0.684
42264,1755607944366,15.31,-45.03,-17.13,785,779,785,404,859,34.48275862068966,-0.258,-0.685,0.684
42294,1755607944395,15.3,-45.02,-17.17,784,779,786,399,862,33.333333333333336,-0.259,-0.684,0.681
42323,1755607944425,15.28,-45.03,-17.18,782,774,782,356,860,34.48275862068966,-0.26,-0.685,0.68
42353,1755607944454,15.32,-45.02,-17.18,781,775,779,356,861,33.333333333333336,-0.26,-0.686,0.681
42382,1755607944484,15.28,-45.03,-17.2,785,779,782,415,864,34.48275862068966,-0.259,-0.686,0.681
42441,1755607944543,15.28,-45.01,-17.2,787,769,781,364,860,34.48275862068966,-0.257,-0.683,0.682
42471,1755607944572,15.29,-45.06,-17.23,785,774,785,338,865,33.333333333333336,-0.258,-0.683,0.682
42500,1755607944602,15.29,-45.0,-17.24,783,774,783,361,862,34.48275862068966,-0.259,-0.686,0.682
42530,1755607944632,15.31,-44.93,-17.22,786,770,781,410,862,33.333333333333336,-0.259,-0.686,0.681
42589,1755607944690,15.74,-45.0,-17.19,784,771,788,348,862,34.48275862068966,-0.257,-0.683,0.68
42648,1755607944749,15.65,-45.02,-17.2,786,775,785,405,862,33.333333333333336,-0.257,-0.681,0.681
42677,1755607944779,15.58,-45.06,-17.21,783,769,782,395,861,34.48275862068966,-0.255,-0.68,0.682
42707,1755607944809,15.6,-45.06,-17.21,788,769,778,362,862,33.333333333333336,-0.255,-0.681,0.685
42727,1755607944829,15.59,-45.05,-17.23,787,772,785,406,862,50.0,-0.254,-0.682,0.686
42757,1755607944858,15.54,-45.09,-17.26,786,778,782,371,865,33.333333333333336,-0.254,-0.683,0.684
42816,1755607944918,15.52,-45.17,-17.25,787,773,786,379,862,33.333333333333336,-0.256,-0.685,0.68
42836,1755607944938,15.47,-45.21,-17.26,785,769,786,343,858,50.0,-0.255,-0.685,0.68
42866,1755607944967,15.29,-45.33,-17.33,787,766,783,389,860,33.333333333333336,-0.253,-0.687,0.68
42895,1755607944997,15.23,-45.51,-17.38,788,773,782,406,858,34.48275862068966,-0.252,-0.689,0.681
42924,1755607945026,15.28,-45.51,-17.35,784,775,784,362,863,34.48275862068966,-0.253,-0.693,0.684
42954,1755607945057,15.26,-45.44,-17.35,786,768,783,331,857,33.333333333333336,-0.253,-0.694,0.683
42975,1755607945076,15.21,-45.48,-17.33,785,776,783,403,868,47.61904761904762,-0.251,-0.692,0.681
43004,1755607945106,15.33,-45.47,-17.24,786,774,783,355,858,34.48275862068966,-0.252,-0.689,0.68
43034,1755607945135,15.45,-45.36,-17.2,787,768,782,369,859,33.333333333333336,-0.251,-0.685,0.678
43063,1755607945165,15.33,-45.37,-17.26,782,771,785,415,860,34.48275862068966,-0.251,-0.683,0.674
43093,1755607945194,15.29,-45.47,-17.28,790,778,784,413,864,33.333333333333336,-0.252,-0.683,0.672
43122,1755607945224,15.36,-45.52,-17.25,782,772,780,347,858,34.48275862068966,-0.254,-0.688,0.674
43152,1755607945253,15.26,-45.54,-17.28,786,773,785,358,860,33.333333333333336,-0.254,-0.691,0.676
43181,1755607945283,15.15,-45.57,-17.27,787,773,780,409,864,34.48275862068966,-0.252,-0.692,0.677
43241,1755607945342,15.23,-45.55,-17.23,782,777,780,371,856,33.333333333333336,-0.249,-0.69,0.677
43270,1755607945372,15.14,-45.56,-17.26,785,773,780,335,862,34.48275862068966,-0.248,-0.688,0.676
43300,1755607945401,15.16,-45.54,-17.26,780,778,780,375,859,33.333333333333336,-0.25,-0.688,0.677
43329,1755607945431,15.17,-45.55,-17.28,788,778,781,402,862,34.48275862068966,-0.251,-0.689,0.677
43359,1755607945461,15.17,-45.56,-17.28,787,775,782,376,860,33.333333333333336,-0.253,-0.691,0.677
43389,1755607945490,15.17,-45.56,-17.29,787,779,784,344,857,33.333333333333336,-0.252,-0.69,0.676
43418,1755607945520,15.17,-45.57,-17.28,787,775,785,312,860,34.48275862068966,-0.252,-0.691,0.675
