timestamp_ms,recv_timestamp_ms,pitch,roll,yaw,flex1,flex2,flex3,flex4,flex5,sampling_hz,accel_x,accel_y,accel_z
91910,1755608496895,10.61,62.66,-42.63,795,847,812,301,822,33.333333333333336,-0.19,0.904,0.395
91939,1755608496897,10.61,62.64,-42.67,799,847,811,373,822,34.48275862068966,-0.191,0.907,0.398
91969,1755608496899,10.62,62.69,-42.7,798,846,813,436,820,33.333333333333336,-0.192,0.906,0.397
91998,1755608496901,10.64,62.64,-42.79,798,840,813,391,828,34.48275862068966,-0.193,0.904,0.389
92028,1755608496903,10.6,62.6,-42.78,796,843,810,311,818,33.333333333333336,-0.196,0.903,0.39
92057,1755608496905,10.57,62.54,-42.76,798,847,812,344,820,34.48275862068966,-0.196,0.903,0.394
92087,1755608496907,10.61,62.49,-42.81,798,846,807,450,822,33.333333333333336,-0.196,0.904,0.397
92116,1755608496909,10.6,62.5,-42.81,796,842,809,406,817,34.48275862068966,-0.195,0.903,0.399
92146,1755608496911,10.59,62.51,-42.79,801,844,807,281,821,33.333333333333336,-0.193,0.905,0.397
92175,1755608496914,10.61,62.5,-42.85,799,842,811,298,825,34.48275862068966,-0.194,0.904,0.397
92205,1755608496915,10.59,62.49,-42.81,797,843,809,375,822,33.333333333333336,-0.195,0.902,0.398
92235,1755608496918,10.6,62.49,-42.82,799,846,813,402,821,33.333333333333336,-0.195,0.904,0.398
92264,1755608496920,10.62,62.5,-42.84,801,840,813,353,820,34.48275862068966,-0.195,0.904,0.399
92294,1755608496922,10.62,62.48,-42.86,801,846,814,298,822,33.333333333333336,-0.191,0.902,0.395
92323,1755608496924,10.63,62.44,-42.9,797,837,810,349,818,34.48275862068966,-0.191,0.902,0.395
92382,1755608496928,10.62,62.42,-42.94,799,841,808,410,822,34.48275862068966,-0.194,0.903,0.398
92412,1755608496930,10.62,62.4,-42.95,797,836,807,313,816,33.333333333333336,-0.195,0.902,0.396
92441,1755608496932,10.61,62.37,-42.94,800,842,808,345,817,34.48275862068966,-0.194,0.902,0.398
92470,1755608496934,10.63,62.35,-42.96,799,842,810,452,823,34.48275862068966,-0.193,0.903,0.4
92500,1755608496936,10.65,62.35,-42.97,796,849,810,415,817,33.333333333333336,-0.192,0.903,0.401
92520,1755608496937,10.66,62.37,-42.97,798,835,810,384,817,50.0,-0.191,0.903,0.4
92549,1755608496939,10.64,62.39,-42.97,801,844,810,394,819,34.48275862068966,-0.191,0.902,0.399
92579,1755608496942,10.62,62.38,-43.0,798,843,812,314,822,33.333333333333336,-0.19,0.902,0.4
92609,1755608496944,10.62,62.36,-43.04,799,839,808,306,824,33.333333333333336,-0.193,0.9,0.402
92638,1755608496945,10.64,62.36,-43.06,799,845,814,406,819,34.48275862068966,-0.194,0.902,0.401
92668,1755608496948,10.66,62.38,-43.1,799,838,812,432,821,33.333333333333336,-0.192,0.905,0.395
92756,1755608497012,10.63,62.32,-43.15,797,842,806,346,826,34.48275862068966,-0.188,0.906,0.401
92786,1755608497041,10.6,62.33,-43.2,797,843,810,428,818,33.333333333333336,-0.188,0.904,0.401
92815,1755608497070,10.58,62.31,-43.22,798,847,814,410,821,34.48275862068966,-0.189,0.902,0.4
92865,1755608497120,10.6,62.25,-43.25,799,836,805,401,820,50.0,-0.191,0.902,0.399
92894,1755608497149,10.58,62.22,-43.3,799,846,808,311,818,34.48275862068966,-0.192,0.902,0.401
92923,1755608497179,10.64,62.22,-43.28,795,842,810,334,821,34.48275862068966,-0.199,0.901,0.406
92953,1755608497208,10.74,62.17,-43.29,797,846,812,444,818,33.333333333333336,-0.199,0.9,0.406
92982,1755608497238,10.77,62.21,-43.24,799,847,813,415,823,34.48275862068966,-0.194,0.899,0.405
93012,1755608497267,10.73,62.25,-43.24,796,847,813,305,816,33.333333333333336,-0.185,0.902,0.401
93041,1755608497297,10.71,62.22,-43.3,802,842,810,330,821,34.48275862068966,-0.184,0.902,0.4
93071,1755608497326,10.71,62.19,-43.39,799,844,810,422,818,33.333333333333336,-0.185,0.903,0.402
93100,1755608497356,10.7,62.19,-43.36,801,845,807,421,816,34.48275862068966,-0.19,0.902,0.403
93130,1755608497385,10.7,62.19,-43.37,797,847,807,338,821,33.333333333333336,-0.191,0.9,0.402
93189,1755608497445,10.73,62.18,-43.43,799,844,813,363,823,33.333333333333336,-0.192,0.896,0.405
93219,1755608497475,10.77,62.22,-43.46,799,836,810,421,823,33.333333333333336,-0.191,0.896,0.407
93249,1755608497504,10.84,62.23,-43.52,800,837,814,405,821,33.333333333333336,-0.192,0.899,0.406
93278,1755608497534,10.86,62.25,-43.51,800,843,808,310,820,34.48275862068966,-0.192,0.899,0.401
93308,1755608497563,10.89,62.2,-43.51,799,846,811,318,819,33.333333333333336,-0.192,0.897,0.399
93337,1755608497592,10.89,62.17,-43.56,795,847,813,429,823,34.48275862068966,-0.19,0.899,0.4
93367,1755608497622,10.88,62.22,-43.53,804,845,808,414,820,33.333333333333336,-0.191,0.901,0.404
93396,1755608497651,10.91,62.22,-43.57,800,842,808,341,822,34.48275862068966,-0.191,0.901,0.403
93425,1755608497681,10.95,62.24,-43.62,797,838,811,331,823,34.48275862068966,-0.192,0.9,0.402
93455,1755608497710,10.94,62.25,-43.63,801,844,811,365,820,33.333333333333336,-0.192,0.901,0.4
93484,1755608497740,10.95,62.28,-43.64,800,846,810,404,822,34.48275862068966,-0.191,0.902,0.401
93514,1755608497769,10.97,62.26,-43.71,799,845,811,343,817,33.333333333333336,-0.191,0.902,0.4
93543,1755608497799,10.98,62.29,-43.75,804,841,809,302,818,34.48275862068966,-0.192,0.901,0.399
93573,1755608497829,10.97,62.33,-43.77,800,843,811,351,817,33.333333333333336,-0.195,0.901,0.399
93603,1755608497858,10.99,62.31,-43.79,799,841,807,436,817,33.333333333333336,-0.196,0.9,0.398
93632,1755608497888,11.01,62.31,-43.77,799,845,812,414,822,34.48275862068966,-0.195,0.901,0.396
93662,1755608497917,10.99,62.3,-43.82,795,841,818,305,820,33.333333333333336,-0.193,0.903,0.395
93721,1755608497976,10.95,62.25,-43.85,801,835,807,435,821,33.333333333333336,-0.196,0.901,0.4
93750,1755608498006,10.96,62.27,-43.88,798,842,804,422,816,34.48275862068966,-0.194,0.902,0.399
93780,1755608498035,10.95,62.3,-43.91,801,841,814,345,815,33.333333333333336,-0.196,0.902,0.4
93809,1755608498065,10.92,62.29,-43.91,798,845,808,281,820,34.48275862068966,-0.194,0.901,0.397
93839,1755608498094,10.93,62.25,-43.94,802,839,813,382,820,33.333333333333336,-0.194,0.9,0.396
93868,1755608498124,10.9,62.23,-43.91,800,844,810,423,821,34.48275862068966,-0.196,0.901,0.399
93928,1755608498183,10.92,62.23,-43.95,802,840,805,291,825,33.333333333333336,-0.195,0.901,0.4
93957,1755608498213,10.91,62.24,-43.94,797,842,811,327,819,34.48275862068966,-0.197,0.901,0.399
93987,1755608498242,10.95,62.22,-43.94,802,847,815,424,822,33.333333333333336,-0.198,0.9,0.4
94016,1755608498272,10.96,62.22,-43.91,801,847,811,406,820,34.48275862068966,-0.197,0.9,0.403
94046,1755608498301,10.97,62.27,-43.9,796,846,808,327,822,33.333333333333336,-0.193,0.897,0.398
94075,1755608498331,10.98,62.25,-43.95,802,846,814,288,815,34.48275862068966,-0.193,0.897,0.397
94105,1755608498361,10.96,62.22,-43.91,798,841,811,389,818,33.333333333333336,-0.192,0.898,0.401
94135,1755608498391,10.97,62.24,-43.94,797,841,809,430,823,33.333333333333336,-0.19,0.9,0.399
94165,1755608498420,10.97,62.23,-43.99,794,845,812,390,821,33.333333333333336,-0.192,0.9,0.398
94194,1755608498450,10.95,62.23,-43.95,802,847,815,322,825,34.48275862068966,-0.192,0.9,0.399
94224,1755608498479,10.94,62.25,-43.97,801,843,812,351,815,33.333333333333336,-0.19,0.901,0.398
94254,1755608498509,10.93,62.24,-44.01,797,842,810,449,823,33.333333333333336,-0.189,0.901,0.397
94283,1755608498538,10.9,62.2,-44.05,798,840,814,424,821,34.48275862068966,-0.19,0.901,0.399
94312,1755608498568,10.89,62.19,-44.06,800,838,806,321,825,34.48275862068966,-0.191,0.902,0.4
94342,1755608498597,10.93,62.19,-44.09,797,841,805,319,817,33.333333333333336,-0.192,0.901,0.401
94371,1755608498627,10.92,62.22,-44.1,794,837,810,415,821,34.48275862068966,-0.191,0.902,0.399
94401,1755608498656,10.88,62.22,-44.14,793,843,810,443,819,33.333333333333336,-0.189,0.902,0.397
94430,1755608498686,10.85,62.18,-44.18,801,843,811,371,820,34.48275862068966,-0.189,0.901,0.398
94460,1755608498715,10.84,62.18,-44.19,801,842,807,327,820,33.333333333333336,-0.192,0.903,0.403
94519,1755608498774,10.87,62.24,-44.22,800,841,809,439,822,33.333333333333336,-0.192,0.901,0.397
94548,1755608498804,10.87,62.2,-44.25,800,845,814,415,827,34.48275862068966,-0.191,0.9,0.398
94578,1755608498833,10.86,62.21,-44.26,800,848,811,322,816,33.333333333333336,-0.193,0.903,0.4
94608,1755608498863,10.86,62.19,-44.26,797,841,813,328,819,33.333333333333336,-0.193,0.901,0.398
94637,1755608498893,10.87,62.15,-44.28,802,840,814,430,818,34.48275862068966,-0.191,0.9,0.399
94667,1755608498922,10.85,62.16,-44.29,799,848,809,420,818,33.333333333333336,-0.191,0.903,0.4
94696,1755608498952,10.87,62.19,-44.31,801,846,810,333,818,34.48275862068966,-0.191,0.903,0.4
94726,1755608498981,10.89,62.18,-44.35,799,839,811,274,814,33.333333333333336,-0.192,0.902,0.397
94755,1755608499011,10.9,62.12,-44.34,799,849,806,360,820,34.48275862068966,-0.193,0.901,0.399
94815,1755608499070,10.93,62.14,-44.35,799,843,807,400,821,33.333333333333336,-0.19,0.903,0.402
94844,1755608499099,10.91,62.17,-44.36,804,846,813,306,812,34.48275862068966,-0.19,0.904,0.401
94873,1755608499129,10.93,62.12,-44.4,797,835,805,330,817,34.48275862068966,-0.189,0.901,0.399
94903,1755608499159,10.93,62.12,-44.44,797,844,812,438,821,33.333333333333336,-0.191,0.901,0.402
94933,1755608499188,10.91,62.16,-44.42,795,834,810,420,822,33.333333333333336,-0.193,0.902,0.403
94992,1755608499247,10.92,62.16,-44.49,801,841,811,326,818,33.333333333333336,-0.19,0.9,0.399
95021,1755608499277,10.9,62.19,-44.46,795,853,809,408,823,34.48275862068966,-0.19,0.903,0.401
95042,1755608499297,10.9,62.22,-44.48,794,845,809,322,820,47.61904761904762,-0.188,0.904,0.399
95100,1755608499356,10.9,62.15,-44.55,798,844,815,405,822,34.48275862068966,-0.191,0.9,0.399
95160,1755608499415,10.92,62.14,-44.66,801,844,813,269,822,33.333333333333336,-0.191,0.902,0.398
95189,1755608499444,10.91,62.11,-44.64,798,841,810,361,826,34.48275862068966,-0.193,0.9,0.4
95218,1755608499474,10.89,62.12,-44.64,800,840,809,422,816,34.48275862068966,-0.192,0.901,0.4
95248,1755608499503,10.91,62.13,-44.69,793,845,814,399,816,33.333333333333336,-0.191,0.903,0.401
95277,1755608499533,10.89,62.11,-44.72,801,843,813,276,816,34.48275862068966,-0.191,0.901,0.401
95307,1755608499562,10.88,62.13,-44.72,796,849,813,325,820,33.333333333333336,-0.192,0.901,0.401
95336,1755608499591,10.86,62.14,-44.74,801,842,811,439,825,34.48275862068966,-0.191,0.902,0.401
95366,1755608499621,10.88,62.15,-44.76,801,842,811,404,814,33.333333333333336,-0.193,0.902,0.401
95395,1755608499651,10.88,62.16,-44.77,798,846,811,314,821,34.48275862068966,-0.194,0.901,0.401
95454,1755608499710,10.88,62.12,-44.78,799,842,811,426,824,34.48275862068966,-0.191,0.901,0.399
95484,1755608499739,10.89,62.12,-44.8,799,846,809,430,826,33.333333333333336,-0.193,0.901,0.403
95513,1755608499769,10.87,62.13,-44.82,799,843,805,360,819,34.48275862068966,-0.192,0.901,0.402
95543,1755608499798,10.88,62.12,-44.85,800,835,812,313,821,33.333333333333336,-0.192,0.9,0.402
95572,1755608499827,10.89,62.09,-44.85,801,846,809,387,817,34.48275862068966,-0.191,0.901,0.403
95602,1755608499857,10.88,62.12,-44.86,798,844,805,421,822,33.333333333333336,-0.19,0.902,0.401
95631,1755608499887,10.87,62.14,-44.93,797,837,813,400,821,34.48275862068966,-0.191,0.901,0.401
95661,1755608499916,10.87,62.12,-44.93,799,841,812,323,821,33.333333333333336,-0.192,0.9,0.402
95690,1755608499946,10.88,62.14,-44.94,796,842,805,349,815,34.48275862068966,-0.193,0.901,0.402
95720,1755608499975,10.9,62.13,-44.97,796,846,809,445,819,33.333333333333336,-0.192,0.902,0.401
95749,1755608500004,10.9,62.15,-44.98,806,843,812,413,822,34.48275862068966,-0.191,0.902,0.4
95779,1755608500034,10.9,62.16,-45.01,799,841,809,316,818,33.333333333333336,-0.19,0.901,0.401
95837,1755608500093,10.89,62.15,-45.06,800,846,811,411,818,34.48275862068966,-0.191,0.902,0.4
95867,1755608500122,10.89,62.15,-45.09,799,844,810,411,821,33.333333333333336,-0.191,0.902,0.4
95896,1755608500152,10.9,62.13,-45.12,799,847,817,346,818,34.48275862068966,-0.193,0.902,0.401
95916,1755608500172,10.89,62.16,-45.13,801,843,812,427,822,50.0,-0.193,0.902,0.4
95946,1755608500201,10.9,62.18,-45.14,801,845,805,341,825,33.333333333333336,-0.193,0.903,0.4
95976,1755608500231,10.9,62.18,-45.18,794,845,813,317,821,33.333333333333336,-0.192,0.902,0.401
96005,1755608500260,10.88,62.18,-45.19,796,842,812,405,820,34.48275862068966,-0.191,0.901,0.401
96064,1755608500320,10.87,62.17,-45.26,795,839,807,388,819,34.48275862068966,-0.193,0.903,0.401
96094,1755608500350,10.88,62.15,-45.28,801,841,810,315,817,33.333333333333336,-0.194,0.901,0.399
96124,1755608500379,10.89,62.16,-45.28,799,842,807,346,819,33.333333333333336,-0.195,0.901,0.401
96153,1755608500409,10.89,62.16,-45.29,797,846,816,433,821,34.48275862068966,-0.193,0.902,0.401
96183,1755608500438,10.89,62.17,-45.32,799,845,811,424,823,33.333333333333336,-0.191,0.901,0.401
96212,1755608500468,10.87,62.14,-45.36,797,843,805,344,819,34.48275862068966,-0.19,0.902,0.402
96242,1755608500497,10.85,62.16,-45.39,799,845,810,329,816,33.333333333333336,-0.19,0.902,0.402
96271,1755608500527,10.87,62.15,-45.44,798,837,811,413,818,34.48275862068966,-0.193,0.9,0.402
96301,1755608500556,10.88,62.15,-45.43,800,840,808,423,817,33.333333333333336,-0.197,0.901,0.401
96330,1755608500585,10.89,62.14,-45.43,800,846,806,352,823,34.48275862068966,-0.196,0.901,0.401
96360,1755608500615,10.9,62.12,-45.43,799,846,805,315,819,33.333333333333336,-0.194,0.901,0.401
96389,1755608500645,10.91,62.12,-45.45,796,842,813,341,823,34.48275862068966,-0.192,0.901,0.401
96419,1755608500675,10.9,62.09,-45.48,798,848,811,443,823,33.333333333333336,-0.193,0.9,0.4
96449,1755608500704,10.89,62.07,-45.47,803,844,813,415,821,33.333333333333336,-0.195,0.901,0.401
96478,1755608500733,10.87,62.05,-45.46,799,842,817,306,824,34.48275862068966,-0.194,0.899,0.402
96507,1755608500763,10.88,62.08,-45.44,796,839,807,333,819,34.48275862068966,-0.192,0.901,0.403
96537,1755608500792,10.88,62.1,-45.46,798,843,808,449,822,33.333333333333336,-0.19,0.902,0.402
96566,1755608500821,10.86,62.09,-45.5,801,844,816,383,820,34.48275862068966,-0.188,0.902,0.399
96596,1755608500851,10.85,62.04,-45.53,800,844,810,279,822,33.333333333333336,-0.19,0.9,0.399
96625,1755608500880,10.84,62.0,-45.52,799,840,809,297,825,34.48275862068966,-0.191,0.902,0.4
96654,1755608500910,10.82,62.0,-45.55,801,845,808,408,817,34.48275862068966,-0.191,0.903,0.402
96684,1755608500940,10.84,61.97,-45.58,800,843,809,420,819,33.333333333333336,-0.191,0.902,0.402
96714,1755608500969,10.83,61.96,-45.57,804,842,809,358,819,33.333333333333336,-0.19,0.9,0.402
96743,1755608500999,10.8,61.96,-45.6,800,842,809,320,819,34.48275862068966,-0.187,0.903,0.402
96773,1755608501028,10.78,61.96,-45.66,797,847,813,345,822,33.333333333333336,-0.188,0.902,0.403
96802,1755608501058,10.78,61.97,-45.68,801,836,810,444,819,34.48275862068966,-0.193,0.901,0.404
96832,1755608501088,10.8,61.99,-46.17,799,843,803,414,817,33.333333333333336,-0.193,0.901,0.402
96862,1755608501117,10.77,61.98,-46.13,802,842,807,301,823,33.333333333333336,-0.192,0.901,0.4
96891,1755608501147,10.76,61.93,-46.17,799,836,810,325,818,34.48275862068966,-0.188,0.902,0.401
96921,1755608501176,10.77,61.91,-46.23,796,847,810,414,818,33.333333333333336,-0.188,0.902,0.404
96980,1755608501236,10.78,61.9,-46.28,799,836,808,383,824,34.48275862068966,-0.187,0.899,0.405
97010,1755608501265,10.77,61.9,-46.31,797,845,809,325,820,33.333333333333336,-0.189,0.902,0.404
97040,1755608501295,10.74,61.9,-46.35,799,847,814,355,819,33.333333333333336,-0.189,0.901,0.404
97098,1755608501354,10.74,61.88,-46.39,799,836,810,426,822,34.48275862068966,-0.194,0.898,0.406
97128,1755608501383,10.75,61.86,-46.4,801,842,810,324,828,33.333333333333336,-0.193,0.899,0.405
97187,1755608501443,10.73,61.9,-46.43,801,841,812,421,821,34.48275862068966,-0.192,0.899,0.406
97217,1755608501472,10.72,61.9,-46.46,797,840,817,419,824,33.333333333333336,-0.192,0.899,0.407
97246,1755608501501,10.72,61.87,-46.47,800,836,810,350,816,34.48275862068966,-0.191,0.899,0.408
97305,1755608501561,10.73,61.79,-46.57,800,844,805,387,822,33.333333333333336,-0.191,0.9,0.404
97335,1755608501590,10.69,61.72,-46.53,797,842,811,428,817,33.333333333333336,-0.194,0.899,0.406
97364,1755608501619,10.7,61.78,-46.55,794,840,811,400,824,34.48275862068966,-0.196,0.901,0.408
97393,1755608501649,10.74,61.77,-46.58,796,841,806,317,820,34.48275862068966,-0.195,0.9,0.408
97423,1755608501679,10.75,61.72,-46.52,800,847,808,344,816,33.333333333333336,-0.193,0.899,0.407
97453,1755608501708,10.76,61.73,-46.53,798,847,810,418,821,33.333333333333336,-0.187,0.901,0.408
97482,1755608501738,10.77,61.76,-46.62,793,846,812,412,820,34.48275862068966,-0.188,0.902,0.409
97512,1755608501767,10.77,61.78,-46.67,797,846,807,289,814,33.333333333333336,-0.187,0.899,0.407
97541,1755608501796,10.83,61.74,-46.72,801,845,811,315,821,34.48275862068966,-0.193,0.897,0.409
97600,1755608501856,10.81,61.73,-46.74,796,842,809,433,821,34.48275862068966,-0.192,0.9,0.408
97630,1755608501885,10.82,61.73,-46.77,800,841,809,359,825,33.333333333333336,-0.196,0.902,0.409
97659,1755608501915,10.84,61.8,-46.76,796,843,809,314,823,34.48275862068966,-0.194,0.9,0.409
97689,1755608501944,10.86,61.83,-46.78,803,838,805,367,821,33.333333333333336,-0.192,0.899,0.406
97718,1755608501974,10.84,61.76,-46.84,800,843,810,423,823,34.48275862068966,-0.192,0.898,0.406
97748,1755608502004,10.82,61.75,-46.84,799,836,812,400,816,33.333333333333336,-0.193,0.9,0.409
97778,1755608502033,10.85,61.75,-46.87,799,848,809,326,823,33.333333333333336,-0.195,0.899,0.411
97807,1755608502062,10.88,61.76,-46.9,795,836,809,341,817,34.48275862068966,-0.195,0.899,0.409
97837,1755608502092,10.86,61.78,-46.89,802,845,811,432,818,33.333333333333336,-0.195,0.897,0.408
97886,1755608502141,10.85,61.79,-46.92,801,841,817,393,817,50.0,-0.192,0.899,0.406
97915,1755608502171,10.85,61.78,-46.97,792,841,803,385,817,34.48275862068966,-0.193,0.899,0.407
97945,1755608502200,10.84,61.79,-46.98,798,847,807,306,824,33.333333333333336,-0.195,0.898,0.408
97974,1755608502230,10.86,61.77,-46.98,800,846,811,325,821,34.48275862068966,-0.195,0.898,0.408
98004,1755608502259,10.87,61.77,-47.0,801,844,811,424,821,33.333333333333336,-0.196,0.898,0.407
98033,1755608502289,10.87,61.79,-47.0,802,843,811,436,816,34.48275862068966,-0.195,0.898,0.408
98063,1755608502318,10.88,61.8,-47.01,795,844,811,346,815,33.333333333333336,-0.194,0.898,0.408
98092,1755608502348,10.9,61.78,-47.02,796,843,810,329,815,34.48275862068966,-0.194,0.898,0.407
98122,1755608502378,10.9,61.76,-47.04,800,837,813,381,819,33.333333333333336,-0.193,0.898,0.405
98152,1755608502407,10.89,61.73,-47.05,800,835,811,440,817,33.333333333333336,-0.192,0.898,0.408
98181,1755608502437,10.9,61.74,-47.08,803,845,811,406,819,34.48275862068966,-0.194,0.9,0.409
98240,1755608502496,10.92,61.74,-47.15,800,844,811,336,815,34.48275862068966,-0.191,0.898,0.407
98270,1755608502526,10.91,61.73,-47.19,795,846,815,428,823,33.333333333333336,-0.19,0.899,0.405
98300,1755608502555,10.89,61.7,-47.22,800,834,807,407,822,33.333333333333336,-0.193,0.899,0.405
98359,1755608502614,10.9,61.68,-47.21,796,835,811,327,820,33.333333333333336,-0.199,0.896,0.408
98388,1755608502644,10.89,61.67,-47.18,802,847,814,391,823,34.48275862068966,-0.194,0.896,0.409
98447,1755608502703,10.87,61.68,-47.28,800,841,804,409,821,34.48275862068966,-0.189,0.899,0.409
98477,1755608502732,10.85,61.69,-47.31,797,845,805,280,825,33.333333333333336,-0.192,0.898,0.406
98507,1755608502763,10.85,61.65,-47.34,799,843,812,318,818,33.333333333333336,-0.195,0.896,0.404
98527,1755608502782,10.84,61.63,-47.33,800,851,805,326,816,50.0,-0.197,0.897,0.405
98556,1755608502811,10.81,61.59,-47.31,800,844,810,350,825,34.48275862068966,-0.197,0.898,0.409
98586,1755608502841,10.84,61.58,-47.33,795,841,812,440,822,33.333333333333336,-0.196,0.898,0.412
98615,1755608502870,10.86,61.63,-47.32,802,837,810,405,822,34.48275862068966,-0.193,0.898,0.411
98645,1755608502900,10.85,61.62,-47.34,798,843,813,311,821,33.333333333333336,-0.189,0.897,0.407
98674,1755608502930,10.82,61.56,-47.39,797,845,813,328,821,34.48275862068966,-0.19,0.898,0.409
98704,1755608502959,10.81,61.59,-47.4,798,847,810,413,820,33.333333333333336,-0.192,0.898,0.413
98733,1755608502989,10.83,61.62,-47.42,799,848,805,417,823,34.48275862068966,-0.193,0.898,0.411
98763,1755608503018,10.84,61.59,-47.44,801,845,810,338,817,33.333333333333336,-0.193,0.897,0.408
98792,1755608503048,10.82,61.56,-47.43,799,847,812,312,824,34.48275862068966,-0.192,0.897,0.408
98822,1755608503077,10.83,61.55,-47.46,795,847,810,367,822,33.333333333333336,-0.192,0.898,0.41
98851,1755608503107,10.83,61.54,-47.47,801,842,807,436,818,34.48275862068966,-0.192,0.898,0.412
98881,1755608503137,10.82,61.56,-47.49,799,838,807,397,824,33.333333333333336,-0.19,0.898,0.411
98911,1755608503166,10.81,61.56,-47.55,799,841,811,318,820,33.333333333333336,-0.188,0.899,0.409
98940,1755608503195,10.78,61.53,-47.57,793,846,809,339,816,34.48275862068966,-0.191,0.897,0.41
98969,1755608503225,10.79,61.53,-47.56,801,836,811,428,824,34.48275862068966,-0.192,0.898,0.412
98999,1755608503254,10.8,61.54,-47.59,796,852,812,403,820,33.333333333333336,-0.193,0.898,0.414
99028,1755608503284,10.79,61.53,-47.6,801,840,812,315,820,34.48275862068966,-0.192,0.896,0.418
99058,1755608503313,10.78,61.52,-47.62,800,838,813,313,820,33.333333333333336,-0.192,0.898,0.417
99087,1755608503342,10.8,61.51,-47.64,801,846,805,420,818,34.48275862068966,-0.192,0.899,0.416
99137,1755608503392,10.36,61.51,-47.7,796,842,810,390,824,47.61904761904762,-0.19,0.895,0.413
99166,1755608503421,10.38,61.49,-47.74,799,842,806,396,820,34.48275862068966,-0.191,0.896,0.414
99195,1755608503451,10.42,61.45,-47.76,797,837,809,316,820,34.48275862068966,-0.194,0.895,0.415
99225,1755608503480,10.45,61.45,-47.78,801,848,814,267,817,33.333333333333336,-0.191,0.897,0.415
99255,1755608503510,10.47,61.49,-47.83,801,847,812,367,821,33.333333333333336,-0.188,0.9,0.411
99284,1755608503539,10.48,61.46,-47.91,799,843,809,420,820,34.48275862068966,-0.188,0.898,0.408
99313,1755608503569,10.48,61.43,-47.98,800,843,805,366,819,34.48275862068966,-0.191,0.896,0.412
99343,1755608503598,10.48,61.51,-47.95,802,842,810,303,820,33.333333333333336,-0.199,0.897,0.418
99372,1755608503628,10.54,61.62,-47.9,798,841,809,340,821,34.48275862068966,-0.2,0.898,0.417
99402,1755608503657,10.6,61.63,-47.9,797,844,811,448,820,33.333333333333336,-0.196,0.896,0.407
99431,1755608503687,10.61,61.59,-47.88,796,835,813,368,820,34.48275862068966,-0.194,0.895,0.405
99461,1755608503716,10.6,61.6,-47.83,800,839,816,303,817,33.333333333333336,-0.193,0.896,0.408
99490,1755608503746,10.62,61.63,-47.88,801,839,809,326,821,34.48275862068966,-0.192,0.898,0.409
99520,1755608503776,10.64,61.64,-47.94,802,842,810,427,819,33.333333333333336,-0.191,0.897,0.409
99549,1755608503805,10.63,61.67,-47.96,801,842,813,410,818,34.48275862068966,-0.192,0.897,0.406
99579,1755608503834,10.64,61.64,-47.96,796,842,808,334,819,33.333333333333336,-0.193,0.898,0.407
99608,1755608503864,10.65,61.63,-48.0,800,845,813,307,821,34.48275862068966,-0.191,0.899,0.407
99638,1755608503893,10.63,61.62,-48.04,798,844,806,388,818,33.333333333333336,-0.19,0.898,0.409
99667,1755608503923,10.65,61.62,-48.07,806,842,813,433,816,34.48275862068966,-0.192,0.898,0.411
99697,1755608503952,10.67,61.64,-48.09,802,836,810,401,826,33.333333333333336,-0.192,0.898,0.41
99726,1755608503982,10.67,61.64,-48.14,801,846,807,321,818,34.48275862068966,-0.192,0.898,0.406
99756,1755608504011,10.66,61.63,-48.18,801,846,810,369,818,33.333333333333336,-0.192,0.898,0.404
99785,1755608504040,10.68,61.56,-48.21,802,845,818,459,823,34.48275862068966,-0.195,0.899,0.407
99814,1755608504070,10.69,61.54,-48.19,802,840,812,416,822,34.48275862068966,-0.197,0.898,0.411
99844,1755608504099,10.72,61.58,-48.2,801,843,806,334,821,33.333333333333336,-0.195,0.9,0.41
99961,1755608504217,10.64,61.5,-48.34,801,846,805,310,822,34.48275862068966,-0.197,0.897,0.412
99991,1755608504246,10.69,61.51,-48.39,800,844,810,323,822,33.333333333333336,-0.199,0.896,0.411
100020,1755608504276,10.75,61.48,-48.38,793,845,810,427,823,34.48275862068966,-0.201,0.896,0.411
100050,1755608504306,10.76,61.48,-48.37,800,843,811,425,820,33.333333333333336,-0.196,0.896,0.407
100110,1755608504365,10.76,61.49,-48.46,795,844,809,316,821,33.333333333333336,-0.193,0.899,0.417
100139,1755608504394,10.8,61.54,-48.48,801,842,810,351,825,34.48275862068966,-0.195,0.898,0.417
100198,1755608504454,10.74,61.53,-48.55,800,835,812,409,820,33.333333333333336,-0.191,0.898,0.406
100228,1755608504483,10.74,61.49,-48.62,798,846,804,325,822,33.333333333333336,-0.194,0.897,0.41
100257,1755608504513,10.75,61.5,-48.64,796,840,813,337,821,34.48275862068966,-0.199,0.895,0.411
100287,1755608504542,10.74,61.51,-48.62,794,842,818,432,813,33.333333333333336,-0.2,0.895,0.41
100316,1755608504572,10.76,61.47,-48.63,799,847,810,425,816,34.48275862068966,-0.199,0.895,0.41
100346,1755608504601,10.77,61.45,-48.64,796,836,811,342,814,33.333333333333336,-0.197,0.897,0.41
100375,1755608504631,10.75,61.46,-48.65,794,841,811,323,821,34.48275862068966,-0.196,0.897,0.41
100405,1755608504660,10.76,61.43,-48.69,794,845,807,387,816,33.333333333333336,-0.196,0.895,0.411
100434,1755608504689,10.74,61.42,-48.69,800,841,807,435,823,34.48275862068966,-0.197,0.894,0.414
100463,1755608504719,10.74,61.43,-48.71,801,843,808,367,823,34.48275862068966,-0.197,0.897,0.416
100493,1755608504749,10.76,61.45,-48.72,798,845,809,304,823,33.333333333333336,-0.198,0.897,0.412
100523,1755608504778,10.77,61.44,-48.73,799,846,808,342,814,33.333333333333336,-0.195,0.896,0.409
100553,1755608504808,10.76,61.39,-48.77,797,837,806,427,820,33.333333333333336,-0.195,0.896,0.41
100582,1755608504838,10.77,61.38,-48.78,796,841,809,401,817,34.48275862068966,-0.197,0.897,0.415
100612,1755608504867,10.81,61.41,-48.82,802,835,815,317,823,33.333333333333336,-0.197,0.897,0.417
100641,1755608504897,10.85,61.41,-48.87,800,843,803,321,817,34.48275862068966,-0.194,0.895,0.413
100671,1755608504926,10.85,61.39,-48.94,799,845,808,394,819,33.333333333333336,-0.192,0.895,0.408
