timestamp_ms,recv_timestamp_ms,pitch,roll,yaw,flex1,flex2,flex3,flex4,flex5,sampling_hz,accel_x,accel_y,accel_z
48087,1755606917446,66.11,-56.99,-39.2,780,771,780,406,869,33.333333333333336,-0.922,-0.331,0.219
48116,1755606917449,66.14,-56.95,-39.25,783,773,779,351,866,34.48275862068966,-0.921,-0.331,0.218
48146,1755606917451,66.17,-56.95,-39.3,782,767,776,322,870,33.333333333333336,-0.921,-0.333,0.216
48176,1755606917453,66.15,-56.94,-39.31,785,776,778,364,864,33.333333333333336,-0.921,-0.334,0.217
48206,1755606917455,66.16,-56.91,-39.32,780,769,781,412,869,33.333333333333336,-0.921,-0.334,0.218
48236,1755606917456,66.15,-56.92,-39.33,783,768,780,384,867,33.333333333333336,-0.921,-0.335,0.215
48256,1755606917459,66.14,-56.95,-39.33,779,776,779,377,871,50.0,-0.921,-0.336,0.212
48285,1755606917461,66.09,-57.04,-39.35,776,767,782,384,860,34.48275862068966,-0.921,-0.334,0.213
48315,1755606917463,66.02,-57.08,-39.37,781,774,774,328,866,33.333333333333336,-0.92,-0.331,0.218
48345,1755606917465,66.0,-57.05,-39.4,786,773,780,328,867,33.333333333333336,-0.919,-0.331,0.22
48365,1755606917468,66.02,-57.05,-39.43,783,767,783,374,871,50.0,-0.92,-0.333,0.219
48395,1755606917470,66.0,-57.11,-39.47,781,777,781,352,867,33.333333333333336,-0.918,-0.337,0.216
48425,1755606917471,65.95,-57.2,-39.5,787,778,783,394,866,33.333333333333336,-0.917,-0.339,0.216
48455,1755606917473,65.95,-57.29,-39.53,782,774,780,420,868,33.333333333333336,-0.916,-0.341,0.22
48485,1755606917476,66.03,-57.36,-39.54,778,776,784,396,862,33.333333333333336,-0.92,-0.34,0.221
48514,1755606917478,66.04,-57.34,-39.56,782,769,778,337,869,34.48275862068966,-0.92,-0.335,0.22
48544,1755606917480,66.06,-57.29,-39.59,783,774,778,353,875,33.333333333333336,-0.922,-0.337,0.217
48573,1755606917481,66.0,-57.29,-39.58,784,777,781,414,864,34.48275862068966,-0.92,-0.34,0.214
48603,1755606917484,65.97,-57.34,-39.56,784,778,777,400,870,33.333333333333336,-0.918,-0.342,0.215
48633,1755606917486,65.96,-57.41,-39.56,783,777,778,350,862,33.333333333333336,-0.918,-0.34,0.219
48662,1755606917488,65.98,-57.39,-39.56,782,778,774,333,864,34.48275862068966,-0.918,-0.338,0.221
48692,1755606917490,66.01,-57.35,-39.56,784,778,780,380,866,33.333333333333336,-0.918,-0.339,0.22
48721,1755606917492,66.02,-57.39,-39.56,782,769,779,422,868,34.48275862068966,-0.919,-0.34,0.217
48751,1755606917494,66.04,-57.39,-39.56,783,773,777,403,866,33.333333333333336,-0.919,-0.34,0.216
48781,1755606917496,66.03,-57.44,-39.55,781,777,780,312,868,33.333333333333336,-0.919,-0.34,0.214
48801,1755606917498,66.01,-57.46,-39.54,783,771,782,385,863,50.0,-0.919,-0.341,0.214
48860,1755606917502,66.04,-57.53,-39.53,778,775,778,352,861,33.333333333333336,-0.919,-0.339,0.216
48890,1755606917504,66.06,-57.53,-39.54,777,774,779,399,866,33.333333333333336,-0.919,-0.34,0.214
48920,1755606917507,66.07,-57.59,-39.54,785,775,779,413,867,33.333333333333336,-0.919,-0.341,0.213
48949,1755606917509,66.05,-57.63,-39.54,782,784,782,352,869,34.48275862068966,-0.92,-0.34,0.212
48979,1755606917511,66.04,-57.66,-39.54,781,769,774,324,866,33.333333333333336,-0.919,-0.341,0.212
49008,1755606917513,66.02,-57.7,-39.53,778,775,777,383,868,34.48275862068966,-0.918,-0.341,0.213
49038,1755606917515,66.05,-57.71,-39.54,783,779,773,421,871,33.333333333333336,-0.919,-0.341,0.215
49067,1755606917517,66.06,-57.68,-39.53,783,784,782,382,865,34.48275862068966,-0.919,-0.34,0.216
49097,1755606917519,66.09,-57.65,-39.53,784,770,781,329,864,33.333333333333336,-0.919,-0.339,0.215
49126,1755606917521,66.07,-57.64,-39.53,779,774,780,359,870,34.48275862068966,-0.917,-0.34,0.214
49156,1755606917523,66.1,-57.64,-39.53,784,774,782,422,870,33.333333333333336,-0.919,-0.34,0.212
49186,1755606917525,66.08,-57.61,-39.51,782,775,777,414,868,33.333333333333336,-0.918,-0.339,0.209
49215,1755606917528,66.03,-57.65,-39.52,784,773,781,362,870,34.48275862068966,-0.92,-0.339,0.21
49245,1755606917530,66.04,-57.7,-39.53,778,773,781,342,875,33.333333333333336,-0.921,-0.338,0.211
49274,1755606917532,66.03,-57.64,-39.5,782,773,778,386,868,34.48275862068966,-0.923,-0.339,0.214
49303,1755606917534,66.05,-57.59,-39.5,780,779,780,422,865,34.48275862068966,-0.922,-0.339,0.213
49333,1755606917541,65.98,-57.58,-39.5,782,768,780,370,865,33.333333333333336,-0.918,-0.338,0.211
49363,1755606917571,66.02,-57.62,-39.53,787,772,782,331,870,33.333333333333336,-0.921,-0.339,0.21
49393,1755606917601,66.0,-57.65,-39.53,784,771,775,377,869,33.333333333333336,-0.918,-0.339,0.209
49422,1755606917630,65.97,-57.67,-39.54,781,778,783,424,863,34.48275862068966,-0.919,-0.337,0.213
49452,1755606917660,66.01,-57.68,-39.56,778,774,783,418,868,33.333333333333336,-0.921,-0.338,0.217
49481,1755606917689,66.04,-57.66,-39.56,778,774,781,349,861,34.48275862068966,-0.92,-0.338,0.215
49511,1755606917719,66.04,-57.66,-39.57,782,776,781,356,873,33.333333333333336,-0.92,-0.339,0.211
49540,1755606917749,65.99,-57.69,-39.57,783,774,777,409,866,34.48275862068966,-0.92,-0.339,0.209
49570,1755606917779,65.99,-57.73,-39.58,784,774,780,416,870,33.333333333333336,-0.919,-0.338,0.212
49600,1755606917808,65.98,-57.7,-39.59,783,772,782,376,870,33.333333333333336,-0.919,-0.338,0.216
49659,1755606917868,65.99,-57.66,-39.6,783,777,779,363,864,33.333333333333336,-0.92,-0.339,0.213
49689,1755606917897,65.96,-57.67,-39.59,785,774,781,399,865,33.333333333333336,-0.92,-0.34,0.211
49748,1755606917956,65.95,-57.69,-39.6,783,772,785,335,866,33.333333333333336,-0.92,-0.339,0.212
49778,1755606917986,65.93,-57.71,-39.6,783,773,779,353,870,33.333333333333336,-0.92,-0.339,0.214
49807,1755606918016,65.48,-57.73,-39.61,781,774,781,401,871,34.48275862068966,-0.919,-0.339,0.214
49837,1755606918045,65.49,-57.73,-39.61,783,773,778,416,865,33.333333333333336,-0.921,-0.339,0.212
49866,1755606918075,65.48,-57.75,-39.61,783,773,779,374,866,34.48275862068966,-0.919,-0.34,0.21
49896,1755606918104,65.5,-57.79,-39.63,784,774,781,330,871,33.333333333333336,-0.918,-0.341,0.212
49925,1755606918134,65.51,-57.79,-39.64,784,774,779,372,871,34.48275862068966,-0.918,-0.34,0.213
49955,1755606918164,65.53,-57.78,-39.65,786,767,781,414,873,33.333333333333336,-0.918,-0.339,0.215
49985,1755606918194,65.55,-57.76,-39.66,779,776,778,405,864,33.333333333333336,-0.917,-0.34,0.213
50005,1755606918213,65.58,-57.76,-39.67,786,774,784,390,863,50.0,-0.918,-0.343,0.212
50034,1755606918243,65.58,-57.77,-39.64,779,779,782,367,873,34.48275862068966,-0.918,-0.344,0.211
50064,1755606918272,65.61,-57.76,-39.66,784,770,778,337,859,33.333333333333336,-0.917,-0.34,0.211
50094,1755606918302,65.65,-57.62,-39.71,786,775,780,348,868,33.333333333333336,-0.918,-0.337,0.213
50123,1755606918332,65.64,-57.62,-39.75,781,769,780,408,865,34.48275862068966,-0.919,-0.339,0.211
50153,1755606918361,65.64,-57.69,-39.73,784,772,782,414,871,33.333333333333336,-0.919,-0.342,0.21
50183,1755606918391,65.58,-57.73,-39.69,782,778,780,374,872,33.333333333333336,-0.916,-0.339,0.212
50212,1755606918421,65.6,-57.74,-39.72,783,769,781,341,871,34.48275862068966,-0.917,-0.338,0.213
50242,1755606918450,65.61,-57.75,-39.74,784,778,782,383,870,33.333333333333336,-0.918,-0.338,0.213
50272,1755606918480,65.59,-57.72,-39.72,783,773,779,377,868,33.333333333333336,-0.917,-0.339,0.213
50301,1755606918509,65.63,-57.74,-39.74,781,767,780,341,864,34.48275862068966,-0.917,-0.339,0.211
50331,1755606918539,65.64,-57.78,-39.75,785,778,777,322,870,33.333333333333336,-0.918,-0.343,0.209
50360,1755606918569,65.59,-57.82,-39.72,783,777,779,334,866,34.48275862068966,-0.918,-0.343,0.208
50390,1755606918599,65.56,-57.85,-39.7,783,778,783,397,870,33.333333333333336,-0.919,-0.341,0.207
50410,1755606918618,65.57,-57.91,-39.69,780,779,777,340,865,50.0,-0.919,-0.34,0.209
50439,1755606918648,65.57,-57.9,-39.67,780,778,783,400,870,34.48275862068966,-0.917,-0.341,0.21
50469,1755606918678,65.58,-57.89,-39.63,783,764,778,400,869,33.333333333333336,-0.918,-0.339,0.212
50499,1755606918707,65.54,-57.92,-39.62,781,771,781,357,865,33.333333333333336,-0.917,-0.335,0.211
50528,1755606918739,65.49,-57.92,-39.62,783,779,780,342,871,34.48275862068966,-0.917,-0.336,0.21
50550,1755606918759,65.47,-57.94,-39.61,780,776,780,407,869,45.45454545454545,-0.917,-0.337,0.211
50580,1755606918788,65.46,-57.96,-39.62,783,774,780,347,865,33.333333333333336,-0.918,-0.336,0.214
50610,1755606918818,65.46,-57.98,-39.66,783,772,785,361,867,33.333333333333336,-0.919,-0.336,0.215
50630,1755606918838,65.45,-57.98,-39.68,784,769,781,362,865,50.0,-0.921,-0.337,0.213
50660,1755606918868,65.43,-57.95,-39.68,782,771,780,383,871,33.333333333333336,-0.92,-0.339,0.212
50689,1755606918897,65.41,-57.95,-39.72,782,776,777,425,869,34.48275862068966,-0.919,-0.338,0.212
50719,1755606918927,65.42,-57.98,-39.77,782,774,780,418,868,33.333333333333336,-0.918,-0.339,0.217
50748,1755606918957,65.46,-57.95,-39.79,778,773,782,343,860,34.48275862068966,-0.919,-0.341,0.217
50778,1755606918986,65.52,-57.98,-39.81,783,774,780,345,866,33.333333333333336,-0.918,-0.34,0.212
50808,1755606919016,65.47,-58.09,-39.85,782,773,780,405,864,33.333333333333336,-0.917,-0.341,0.21
50837,1755606919047,65.48,-58.13,-39.88,779,778,784,417,869,34.48275862068966,-0.919,-0.343,0.214
50858,1755606919066,65.47,-58.09,-39.88,777,767,779,364,866,47.61904761904762,-0.917,-0.34,0.217
50887,1755606919096,65.44,-58.07,-39.92,784,775,776,403,866,34.48275862068966,-0.916,-0.34,0.216
50917,1755606919125,65.42,-58.03,-39.92,784,773,782,365,872,33.333333333333336,-0.919,-0.343,0.214
50946,1755606919155,65.38,-57.97,-39.88,779,768,779,323,867,34.48275862068966,-0.92,-0.345,0.214
50976,1755606919184,65.25,-58.0,-39.84,783,767,780,364,866,33.333333333333336,-0.918,-0.344,0.213
51006,1755606919214,65.29,-58.02,-39.87,786,776,778,399,871,33.333333333333336,-0.92,-0.345,0.217
51036,1755606919244,65.33,-57.93,-39.85,782,775,784,393,862,33.333333333333336,-0.919,-0.346,0.219
51065,1755606919273,65.35,-57.9,-39.85,778,776,774,349,865,34.48275862068966,-0.917,-0.343,0.218
51095,1755606919303,65.36,-57.88,-39.86,783,776,783,353,869,33.333333333333336,-0.918,-0.342,0.217
51124,1755606919333,65.36,-57.83,-39.85,778,775,781,406,863,34.48275862068966,-0.918,-0.343,0.216
51154,1755606919362,65.36,-57.91,-39.87,790,777,781,423,866,33.333333333333336,-0.918,-0.344,0.213
51184,1755606919392,65.3,-58.02,-39.87,774,763,780,384,862,33.333333333333336,-0.916,-0.344,0.214
51213,1755606919422,65.31,-58.07,-39.89,779,778,778,350,866,34.48275862068966,-0.916,-0.344,0.217
51263,1755606919472,65.28,-57.99,-39.89,783,777,780,373,869,33.333333333333336,-0.917,-0.343,0.216
51293,1755606919502,65.27,-58.02,-39.89,776,778,779,393,873,33.333333333333336,-0.918,-0.346,0.217
51323,1755606919531,65.25,-58.05,-39.89,781,772,783,408,862,33.333333333333336,-0.916,-0.346,0.216
51352,1755606919561,65.28,-58.01,-39.87,783,768,780,405,861,34.48275862068966,-0.918,-0.344,0.218
51382,1755606919590,65.25,-58.0,-39.84,781,774,779,341,867,33.333333333333336,-0.917,-0.342,0.217
51411,1755606919620,65.21,-58.03,-39.85,781,769,778,337,866,34.48275862068966,-0.918,-0.34,0.215
51441,1755606919649,65.13,-58.05,-39.84,783,776,776,393,871,33.333333333333336,-0.918,-0.342,0.212
51500,1755606919709,65.09,-58.2,-39.86,778,773,777,367,867,33.333333333333336,-0.914,-0.344,0.218
51530,1755606919738,65.1,-58.18,-39.87,782,779,775,342,868,33.333333333333336,-0.916,-0.342,0.222
51559,1755606919767,65.17,-58.13,-39.89,782,771,775,379,870,34.48275862068966,-0.916,-0.342,0.223
51589,1755606919797,65.21,-58.12,-39.91,780,773,778,426,867,33.333333333333336,-0.915,-0.343,0.219
51618,1755606919827,65.2,-58.16,-39.91,783,779,782,402,868,34.48275862068966,-0.916,-0.343,0.216
51648,1755606919857,65.18,-58.22,-39.93,779,769,778,360,874,33.333333333333336,-0.916,-0.341,0.219
51678,1755606919886,65.21,-58.22,-39.96,783,778,780,357,864,33.333333333333336,-0.917,-0.342,0.219
51707,1755606919916,65.22,-58.21,-39.96,781,774,781,414,868,34.48275862068966,-0.917,-0.344,0.218
51737,1755606919945,65.2,-58.22,-39.95,784,774,783,416,871,33.333333333333336,-0.917,-0.346,0.217
51767,1755606919975,65.19,-58.31,-39.95,783,776,777,371,867,33.333333333333336,-0.917,-0.346,0.214
51796,1755606920005,65.15,-58.38,-39.96,782,772,780,348,870,34.48275862068966,-0.915,-0.346,0.21
51826,1755606920034,65.11,-58.52,-39.96,781,775,783,384,863,33.333333333333336,-0.918,-0.348,0.211
51856,1755606920064,65.09,-58.6,-39.93,781,773,780,413,864,33.333333333333336,-0.916,-0.349,0.214
51885,1755606920094,65.06,-58.69,-39.9,782,770,777,406,872,34.48275862068966,-0.915,-0.346,0.218
51915,1755606920123,65.08,-58.74,-39.88,779,773,775,360,868,33.333333333333336,-0.916,-0.345,0.221
51974,1755606920182,65.18,-58.79,-39.9,782,773,781,366,870,33.333333333333336,-0.916,-0.345,0.218
52003,1755606920212,65.19,-58.81,-39.91,784,771,780,354,870,34.48275862068966,-0.916,-0.347,0.214
52033,1755606920242,65.23,-58.85,-39.93,783,768,775,350,873,33.333333333333336,-0.917,-0.345,0.215
52063,1755606920272,65.26,-58.86,-39.95,779,775,780,321,869,33.333333333333336,-0.917,-0.345,0.219
52093,1755606920301,65.29,-58.84,-39.97,782,776,781,353,865,33.333333333333336,-0.915,-0.346,0.221
52123,1755606920331,65.39,-58.86,-40.02,780,772,778,413,869,33.333333333333336,-0.914,-0.347,0.219
52152,1755606920360,65.51,-58.8,-40.07,784,775,776,420,869,34.48275862068966,-0.916,-0.347,0.217
52182,1755606920390,65.52,-58.72,-40.06,779,775,779,362,872,33.333333333333336,-0.917,-0.349,0.209
52211,1755606920420,65.55,-58.77,-40.08,779,767,777,352,867,34.48275862068966,-0.916,-0.35,0.204
52241,1755606920449,65.53,-58.79,-40.1,779,773,782,398,869,33.333333333333336,-0.917,-0.351,0.207
52270,1755606920479,65.53,-58.76,-40.15,783,775,780,408,863,34.48275862068966,-0.915,-0.351,0.21
52300,1755606920508,65.51,-58.76,-40.17,784,773,786,365,871,33.333333333333336,-0.919,-0.348,0.208
52389,1755606920597,65.47,-58.87,-40.18,785,770,778,402,867,34.48275862068966,-0.917,-0.351,0.205
52419,1755606920627,65.42,-58.93,-40.18,779,770,781,393,863,33.333333333333336,-0.915,-0.351,0.207
52448,1755606920657,65.43,-58.99,-40.21,780,778,780,340,867,34.48275862068966,-0.917,-0.35,0.209
52478,1755606920686,65.44,-58.97,-40.18,779,773,779,351,868,33.333333333333336,-0.919,-0.354,0.21
52507,1755606920716,65.42,-59.04,-40.18,782,776,780,408,870,34.48275862068966,-0.916,-0.352,0.207
52537,1755606920745,65.4,-59.11,-40.19,781,771,780,412,861,33.333333333333336,-0.917,-0.352,0.206
52566,1755606920775,65.37,-59.12,-40.2,778,768,782,362,868,34.48275862068966,-0.917,-0.353,0.206
52596,1755606920805,65.31,-59.14,-40.2,782,784,779,295,862,33.333333333333336,-0.916,-0.354,0.208
52626,1755606920834,65.31,-59.21,-40.23,783,772,781,362,865,33.333333333333336,-0.914,-0.353,0.21
52655,1755606920864,65.33,-59.28,-40.29,778,774,777,412,866,34.48275862068966,-0.914,-0.352,0.211
52685,1755606920894,65.38,-59.32,-40.35,781,772,779,408,875,33.333333333333336,-0.914,-0.355,0.21
52715,1755606920923,65.39,-59.36,-40.34,782,773,775,312,860,33.333333333333336,-0.916,-0.357,0.206
52744,1755606920953,65.31,-59.39,-40.32,779,773,774,345,868,34.48275862068966,-0.915,-0.356,0.204
52774,1755606920982,65.27,-59.45,-40.31,780,773,779,405,871,33.333333333333336,-0.914,-0.356,0.207
52803,1755606921012,65.25,-59.44,-40.29,783,771,781,422,872,34.48275862068966,-0.913,-0.355,0.209
52833,1755606921041,65.22,-59.4,-40.26,778,774,784,369,863,33.333333333333336,-0.915,-0.355,0.21
52863,1755606921071,65.2,-59.4,-40.24,780,773,781,345,861,33.333333333333336,-0.915,-0.356,0.209
52893,1755606921101,65.17,-59.41,-40.21,783,773,778,380,865,33.333333333333336,-0.914,-0.356,0.208
52922,1755606921131,65.14,-59.4,-40.15,783,782,780,411,865,34.48275862068966,-0.914,-0.357,0.211
52952,1755606921160,65.2,-59.41,-40.11,781,776,779,405,869,33.333333333333336,-0.913,-0.356,0.209
52981,1755606921190,65.16,-59.43,-40.08,779,785,780,350,865,34.48275862068966,-0.915,-0.352,0.202
53011,1755606921219,65.08,-59.5,-40.09,784,772,781,349,869,33.333333333333336,-0.914,-0.353,0.196
53041,1755606921249,65.07,-59.6,-40.09,784,776,776,405,869,33.333333333333336,-0.915,-0.357,0.202
53070,1755606921279,65.05,-59.65,-40.05,782,778,779,376,866,34.48275862068966,-0.914,-0.355,0.211
53100,1755606921308,65.09,-59.65,-40.02,777,775,774,307,869,33.333333333333336,-0.912,-0.35,0.216
53129,1755606921338,65.16,-59.66,-40.02,780,773,773,315,866,34.48275862068966,-0.914,-0.348,0.215
53159,1755606921367,65.23,-59.7,-40.05,780,772,782,366,863,33.333333333333336,-0.914,-0.349,0.21
53188,1755606921397,65.25,-59.7,-40.04,782,774,781,402,866,34.48275862068966,-0.915,-0.351,0.207
53218,1755606921427,65.18,-59.75,-40.03,783,768,776,397,873,33.333333333333336,-0.916,-0.35,0.201
53248,1755606921456,65.11,-59.77,-40.04,779,773,780,333,861,33.333333333333336,-0.916,-0.352,0.198
53277,1755606921485,65.09,-59.86,-40.07,781,773,778,351,871,34.48275862068966,-0.914,-0.354,0.205
53307,1755606921515,65.1,-59.86,-40.07,782,772,777,403,867,33.333333333333336,-0.915,-0.355,0.214
53336,1755606921544,65.12,-59.77,-40.06,782,772,779,390,871,34.48275862068966,-0.914,-0.351,0.216
53366,1755606921574,65.19,-59.67,-40.07,780,774,781,358,877,33.333333333333336,-0.914,-0.352,0.214
53395,1755606921604,65.22,-59.66,-40.06,783,767,781,338,867,34.48275862068966,-0.914,-0.355,0.209
53425,1755606921633,65.22,-59.7,-40.05,778,766,778,398,871,33.333333333333336,-0.914,-0.353,0.205
53455,1755606921663,65.18,-59.67,-40.04,782,769,781,410,864,33.333333333333336,-0.915,-0.349,0.204
53484,1755606921692,65.17,-59.66,-40.06,782,776,777,383,863,34.48275862068966,-0.915,-0.348,0.205
53514,1755606921723,65.16,-59.7,-40.1,784,771,779,343,869,33.333333333333336,-0.916,-0.353,0.205
53534,1755606921742,65.15,-59.73,-40.1,778,766,777,395,873,50.0,-0.916,-0.356,0.205
53563,1755606921772,65.17,-59.73,-40.11,781,773,778,340,867,34.48275862068966,-0.915,-0.354,0.207
53593,1755606921801,65.19,-59.65,-40.13,782,768,781,368,875,33.333333333333336,-0.916,-0.351,0.208
53652,1755606921861,65.15,-59.63,-40.18,782,776,780,419,866,34.48275862068966,-0.916,-0.356,0.202
53682,1755606921890,65.14,-59.66,-40.16,780,777,778,366,865,33.333333333333336,-0.915,-0.357,0.208
53711,1755606921920,65.15,-59.66,-40.15,782,772,780,354,868,34.48275862068966,-0.914,-0.354,0.208
53741,1755606921950,65.13,-59.67,-40.17,784,773,775,404,868,33.333333333333336,-0.916,-0.351,0.206
53771,1755606921979,65.16,-59.67,-40.19,776,771,781,413,872,33.333333333333336,-0.917,-0.354,0.206
53801,1755606922009,65.14,-59.73,-40.2,779,772,782,369,872,33.333333333333336,-0.915,-0.356,0.208
53830,1755606922039,65.15,-59.76,-40.2,779,771,782,340,870,34.48275862068966,-0.914,-0.354,0.21
53860,1755606922068,65.18,-59.71,-40.21,780,778,778,364,867,33.333333333333336,-0.916,-0.353,0.209
53889,1755606922098,65.2,-59.74,-40.23,778,778,774,424,863,34.48275862068966,-0.915,-0.355,0.207
53919,1755606922127,65.23,-59.79,-40.23,782,773,781,417,873,33.333333333333336,-0.915,-0.358,0.208
53948,1755606922157,65.23,-59.82,-40.21,780,777,778,310,866,34.48275862068966,-0.915,-0.357,0.207
54008,1755606922216,65.27,-59.86,-40.23,781,771,782,385,861,33.333333333333336,-0.915,-0.354,0.205
54037,1755606922246,65.26,-59.88,-40.24,781,775,781,425,866,34.48275862068966,-0.917,-0.355,0.204
54067,1755606922276,65.25,-59.87,-40.23,782,776,780,373,865,33.333333333333336,-0.916,-0.354,0.204
54097,1755606922305,65.24,-59.9,-40.26,785,776,781,342,867,33.333333333333336,-0.915,-0.352,0.204
54127,1755606922335,65.23,-59.96,-40.28,782,774,775,356,874,33.333333333333336,-0.915,-0.354,0.203
54156,1755606922364,65.23,-59.96,-40.31,779,772,777,418,865,34.48275862068966,-0.914,-0.355,0.204
54186,1755606922394,65.25,-59.92,-40.3,780,776,779,412,866,33.333333333333336,-0.916,-0.358,0.204
54245,1755606922453,65.23,-59.95,-40.27,784,773,781,344,866,33.333333333333336,-0.915,-0.357,0.205
54265,1755606922474,65.25,-59.95,-40.26,782,777,779,357,867,50.0,-0.915,-0.355,0.203
54285,1755606922493,65.25,-59.96,-40.26,782,774,777,407,868,50.0,-0.916,-0.354,0.201
54314,1755606922523,65.21,-60.02,-40.25,778,774,782,349,865,34.48275862068966,-0.916,-0.355,0.203
54344,1755606922552,65.19,-60.01,-40.24,784,768,779,354,864,33.333333333333336,-0.914,-0.354,0.205
54373,1755606922582,65.2,-60.01,-40.24,779,764,778,421,866,34.48275862068966,-0.916,-0.355,0.204
54403,1755606922612,65.22,-60.05,-40.24,780,785,778,408,866,33.333333333333336,-0.915,-0.356,0.205
54433,1755606922641,65.22,-60.07,-40.23,783,772,784,353,873,33.333333333333336,-0.917,-0.356,0.206
54462,1755606922671,65.25,-60.01,-40.23,781,773,781,333,868,34.48275862068966,-0.915,-0.353,0.206
54492,1755606922700,65.28,-60.02,-40.26,783,773,775,368,869,33.333333333333336,-0.915,-0.355,0.207
54521,1755606922730,65.29,-60.0,-40.24,786,774,776,420,863,34.48275862068966,-0.916,-0.356,0.204
54551,1755606922759,65.28,-60.01,-40.23,780,778,776,400,864,33.333333333333336,-0.915,-0.354,0.202
54581,1755606922789,65.25,-59.99,-40.22,784,768,777,350,866,33.333333333333336,-0.916,-0.354,0.202
54610,1755606922819,65.23,-60.0,-40.24,777,773,780,358,866,34.48275862068966,-0.914,-0.354,0.2
54669,1755606922878,65.22,-60.02,-40.26,787,768,784,420,865,34.48275862068966,-0.915,-0.356,0.205
54699,1755606922907,65.27,-59.96,-40.25,777,773,782,359,870,33.333333333333336,-0.915,-0.354,0.207
54758,1755606922966,65.37,-59.92,-40.27,781,774,781,382,866,33.333333333333336,-0.914,-0.354,0.203
54787,1755606922996,65.39,-59.97,-40.28,785,776,777,423,871,34.48275862068966,-0.914,-0.355,0.203
54817,1755606923025,65.43,-59.99,-40.3,780,777,778,378,860,33.333333333333336,-0.915,-0.354,0.201
54846,1755606923055,65.43,-60.04,-40.33,781,771,779,335,868,34.48275862068966,-0.916,-0.353,0.2
54876,1755606923085,65.39,-60.08,-40.35,781,772,780,380,871,33.333333333333336,-0.917,-0.356,0.199
54905,1755606923114,65.34,-60.09,-40.34,783,774,779,414,869,34.48275862068966,-0.918,-0.358,0.201
54935,1755606923144,65.32,-60.12,-40.34,784,766,782,407,865,33.333333333333336,-0.915,-0.356,0.203
54965,1755606923174,65.33,-60.08,-40.34,785,766,780,314,870,33.333333333333336,-0.917,-0.354,0.206
54995,1755606923203,65.36,-60.04,-40.34,782,770,780,318,868,33.333333333333336,-0.916,-0.355,0.204
55024,1755606923233,65.35,-60.05,-40.34,782,774,776,386,869,34.48275862068966,-0.916,-0.356,0.2
55054,1755606923262,65.32,-60.13,-40.35,782,777,784,401,866,33.333333333333336,-0.915,-0.357,0.197
55083,1755606923292,65.26,-60.18,-40.35,782,777,779,354,868,34.48275862068966,-0.916,-0.355,0.198
55113,1755606923322,65.25,-60.14,-40.36,776,766,784,331,868,33.333333333333336,-0.916,-0.356,0.202
55143,1755606923351,65.23,-60.14,-40.38,782,774,780,362,870,33.333333333333336,-0.914,-0.358,0.203
55172,1755606923381,65.24,-60.19,-40.38,783,765,778,373,865,34.48275862068966,-0.915,-0.358,0.201
55232,1755606923440,65.26,-60.22,-40.35,777,768,776,351,860,33.333333333333336,-0.915,-0.358,0.207
55261,1755606923470,65.27,-60.18,-40.33,784,767,778,347,863,34.48275862068966,-0.915,-0.356,0.205
55291,1755606923499,65.3,-60.18,-40.33,782,772,778,408,866,33.333333333333336,-0.916,-0.359,0.204
55320,1755606923529,65.26,-60.19,-40.3,777,779,784,435,861,34.48275862068966,-0.915,-0.355,0.202
55350,1755606923558,65.23,-60.13,-40.3,784,778,776,381,868,33.333333333333336,-0.916,-0.352,0.201
55380,1755606923588,65.26,-60.13,-40.32,782,774,773,335,861,33.333333333333336,-0.915,-0.354,0.201
55409,1755606923618,65.24,-60.16,-40.33,780,772,780,375,867,34.48275862068966,-0.914,-0.358,0.199
55429,1755606923638,65.24,-60.23,-40.34,782,772,780,364,867,50.0,-0.915,-0.361,0.2
55459,1755606923668,65.28,-60.27,-40.33,779,771,777,382,863,33.333333333333336,-0.915,-0.358,0.203
55489,1755606923697,65.31,-60.25,-40.36,782,770,775,416,864,33.333333333333336,-0.915,-0.353,0.201
55548,1755606923756,65.27,-60.28,-40.39,781,774,779,347,869,33.333333333333336,-0.915,-0.356,0.196
55577,1755606923786,65.22,-60.31,-40.4,781,772,781,351,868,34.48275862068966,-0.915,-0.358,0.199
55607,1755606923816,65.2,-60.33,-40.41,782,771,782,409,868,33.333333333333336,-0.914,-0.357,0.206
55637,1755606923845,65.22,-60.28,-40.43,782,770,785,423,871,33.333333333333336,-0.916,-0.354,0.206
55666,1755606923875,65.25,-60.26,-40.44,779,771,784,380,871,34.48275862068966,-0.918,-0.358,0.203
55696,1755606923905,65.23,-60.29,-40.43,781,767,781,337,867,33.333333333333336,-0.919,-0.358,0.198
55726,1755606923934,65.15,-60.33,-40.43,782,775,776,378,869,33.333333333333336,-0.916,-0.355,0.199
55755,1755606923964,65.13,-60.27,-40.43,780,769,779,423,869,34.48275862068966,-0.915,-0.356,0.203
55814,1755606924023,65.11,-60.27,-40.41,779,772,783,351,865,34.48275862068966,-0.915,-0.356,0.204
55844,1755606924052,65.1,-60.28,-40.39,783,765,775,356,867,33.333333333333336,-0.915,-0.356,0.203
55873,1755606924082,65.1,-60.26,-40.39,782,771,780,414,872,34.48275862068966,-0.915,-0.355,0.207
55903,1755606924111,65.12,-60.26,-40.4,779,772,782,423,870,33.333333333333336,-0.915,-0.355,0.206
55932,1755606924141,65.11,-60.26,-40.38,783,765,780,377,866,34.48275862068966,-0.913,-0.354,0.203
55991,1755606924200,65.06,-60.25,-40.37,783,772,780,384,870,34.48275862068966,-0.914,-0.356,0.205
56021,1755606924229,65.08,-60.31,-40.38,781,777,783,404,863,33.333333333333336,-0.913,-0.354,0.205
56050,1755606924259,65.06,-60.25,-40.37,783,774,776,364,868,34.48275862068966,-0.914,-0.354,0.202
56080,1755606924288,65.08,-60.25,-40.38,780,772,779,337,863,33.333333333333336,-0.912,-0.356,0.202
56110,1755606924318,65.06,-60.27,-40.38,783,775,775,371,869,33.333333333333336,-0.914,-0.355,0.204
56139,1755606924348,65.02,-60.26,-40.35,780,776,777,411,869,34.48275862068966,-0.914,-0.353,0.205
56169,1755606924378,65.02,-60.22,-40.36,776,775,778,394,867,33.333333333333336,-0.912,-0.355,0.206
56199,1755606924408,65.12,-60.24,-40.4,778,774,782,338,862,33.333333333333336,-0.912,-0.357,0.208
56229,1755606924437,65.11,-60.22,-40.39,780,773,782,321,869,33.333333333333336,-0.914,-0.355,0.207
56259,1755606924467,65.09,-60.17,-40.38,783,774,780,369,869,33.333333333333336,-0.916,-0.352,0.205
56288,1755606924497,65.07,-60.1,-40.38,784,773,780,411,870,34.48275862068966,-0.915,-0.355,0.202
56318,1755606924527,65.07,-60.08,-40.35,786,768,784,391,866,33.333333333333336,-0.915,-0.357,0.204
56348,1755606924556,65.07,-59.98,-40.31,782,764,781,344,868,33.333333333333336,-0.914,-0.357,0.208
56377,1755606924586,65.11,-59.83,-40.27,782,771,777,339,864,34.48275862068966,-0.913,-0.356,0.211
56407,1755606924616,65.26,-59.77,-40.26,781,770,782,396,875,33.333333333333336,-0.912,-0.354,0.209
56437,1755606924645,65.31,-59.73,-40.26,781,767,777,411,863,33.333333333333336,-0.914,-0.349,0.202
56466,1755606924675,65.3,-59.78,-40.27,783,763,779,356,869,34.48275862068966,-0.916,-0.351,0.201
56496,1755606924705,65.3,-59.85,-40.27,782,773,782,344,864,33.333333333333336,-0.915,-0.352,0.202
56526,1755606924734,65.3,-59.85,-40.27,778,771,782,379,865,33.333333333333336,-0.915,-0.346,0.204
56555,1755606924764,65.29,-59.81,-40.3,780,768,780,417,870,34.48275862068966,-0.916,-0.346,0.205
56585,1755606924793,65.31,-59.77,-40.34,780,767,780,405,863,33.333333333333336,-0.917,-0.347,0.202
56614,1755606924823,65.24,-59.8,-40.35,779,775,777,357,869,34.48275862068966,-0.917,-0.351,0.199
56644,1755606924852,65.19,-59.87,-40.36,782,773,782,364,862,33.333333333333336,-0.916,-0.352,0.199
56673,1755606924882,65.18,-59.9,-40.37,782,772,779,394,869,34.48275862068966,-0.917,-0.353,0.203
56703,1755606924912,65.2,-59.89,-40.38,782,762,785,395,869,33.333333333333336,-0.917,-0.352,0.205
56733,1755606924941,65.17,-59.88,-40.39,782,770,784,369,866,33.333333333333336,-0.915,-0.351,0.203
56762,1755606924971,65.18,-59.9,-40.4,779,770,780,343,863,34.48275862068966,-0.916,-0.354,0.205
56792,1755606925000,65.18,-59.93,-40.39,781,768,780,374,868,33.333333333333336,-0.914,-0.353,0.205
56822,1755606925030,65.12,-59.94,-40.39,777,779,783,406,863,33.333333333333336,-0.915,-0.351,0.205
