timestamp_ms,recv_timestamp_ms,pitch,roll,yaw,flex1,flex2,flex3,flex4,flex5,sampling_hz,accel_x,accel_y,accel_z
56851,1755606925892,65.12,-59.94,-40.39,785,767,777,404,868,34.48275862068966,-0.917,-0.352,0.206
56881,1755606925894,65.12,-59.91,-40.39,782,768,775,335,865,33.333333333333336,-0.914,-0.353,0.205
56910,1755606925897,65.17,-59.88,-40.4,777,769,779,349,868,34.48275862068966,-0.916,-0.351,0.203
56940,1755606925899,65.15,-59.8,-40.44,782,766,780,418,866,33.333333333333336,-0.916,-0.349,0.202
56960,1755606925901,65.16,-59.78,-40.48,782,768,779,337,871,50.0,-0.916,-0.35,0.205
57019,1755606925905,65.06,-59.9,-40.53,782,768,779,397,861,33.333333333333336,-0.919,-0.353,0.208
57048,1755606925906,65.03,-59.85,-40.54,783,773,781,349,868,34.48275862068966,-0.918,-0.352,0.21
57078,1755606925908,65.06,-59.84,-40.58,778,767,776,345,867,33.333333333333336,-0.914,-0.353,0.213
57107,1755606925910,65.1,-59.85,-40.62,782,774,778,405,864,34.48275862068966,-0.916,-0.353,0.211
57137,1755606925913,65.1,-59.85,-40.64,779,775,781,421,861,33.333333333333336,-0.916,-0.354,0.208
57167,1755606925914,65.1,-59.96,-40.68,782,773,780,386,864,33.333333333333336,-0.913,-0.357,0.205
57197,1755606925916,65.06,-60.03,-40.69,784,778,782,341,867,33.333333333333336,-0.914,-0.358,0.204
57226,1755606925918,65.0,-60.08,-40.7,781,773,782,362,868,34.48275862068966,-0.914,-0.357,0.204
57286,1755606925922,64.82,-60.23,-40.76,782,771,780,408,865,33.333333333333336,-0.914,-0.361,0.206
57316,1755606925925,64.78,-60.28,-40.76,784,770,776,348,866,33.333333333333336,-0.914,-0.361,0.205
57345,1755606925927,64.74,-60.27,-40.77,779,774,775,328,870,34.48275862068966,-0.913,-0.359,0.206
57375,1755606925929,64.69,-60.29,-40.76,781,774,782,380,868,33.333333333333336,-0.913,-0.361,0.208
57395,1755606925930,64.68,-60.31,-40.77,779,770,784,359,869,50.0,-0.911,-0.363,0.209
57425,1755606925933,64.69,-60.32,-40.78,782,774,779,400,865,33.333333333333336,-0.912,-0.361,0.21
57455,1755606925935,64.69,-60.31,-40.78,781,763,781,434,871,33.333333333333336,-0.911,-0.361,0.211
57484,1755606925937,64.71,-60.25,-40.78,781,765,781,401,874,34.48275862068966,-0.91,-0.362,0.211
57514,1755606925939,64.67,-60.24,-40.78,779,771,777,339,865,33.333333333333336,-0.91,-0.361,0.208
57543,1755606925941,64.68,-60.29,-40.82,782,780,777,363,864,34.48275862068966,-0.909,-0.361,0.206
57603,1755606925945,64.64,-60.27,-40.79,783,766,783,415,864,33.333333333333336,-0.91,-0.36,0.21
57691,1755606925950,64.59,-60.31,-40.8,784,760,781,385,862,34.48275862068966,-0.909,-0.359,0.209
57721,1755606925952,64.55,-60.3,-40.81,785,761,783,420,866,33.333333333333336,-0.911,-0.36,0.209
57751,1755606925959,64.55,-60.33,-40.84,782,758,783,392,868,33.333333333333336,-0.912,-0.364,0.208
57780,1755606925989,64.56,-60.34,-40.85,781,761,773,340,869,34.48275862068966,-0.912,-0.364,0.208
57810,1755606926018,64.56,-60.32,-40.85,780,773,779,361,865,33.333333333333336,-0.912,-0.364,0.212
57839,1755606926048,64.61,-60.27,-40.87,778,756,775,407,868,34.48275862068966,-0.912,-0.363,0.211
57869,1755606926077,64.63,-60.23,-40.88,778,764,781,406,866,33.333333333333336,-0.911,-0.364,0.211
57899,1755606926107,64.62,-60.3,-40.88,783,769,779,314,874,33.333333333333336,-0.911,-0.363,0.21
57928,1755606926137,64.58,-60.31,-40.87,784,763,782,333,867,34.48275862068966,-0.912,-0.363,0.21
57948,1755606926157,64.58,-60.29,-40.88,784,769,782,376,870,50.0,-0.911,-0.364,0.211
57978,1755606926186,64.57,-60.28,-40.87,781,766,777,351,866,33.333333333333336,-0.911,-0.363,0.212
58007,1755606926216,64.59,-60.27,-40.88,779,764,775,406,865,34.48275862068966,-0.912,-0.363,0.212
58037,1755606926246,64.61,-60.28,-40.89,780,767,779,418,869,33.333333333333336,-0.911,-0.363,0.212
58096,1755606926305,64.69,-60.27,-40.94,781,762,775,327,867,34.48275862068966,-0.912,-0.364,0.212
58156,1755606926364,64.64,-60.32,-40.92,779,762,784,413,863,33.333333333333336,-0.912,-0.362,0.211
58185,1755606926393,64.66,-60.27,-40.93,781,772,785,415,867,34.48275862068966,-0.912,-0.363,0.209
58215,1755606926423,64.65,-60.3,-40.93,779,767,779,350,859,33.333333333333336,-0.91,-0.364,0.208
58244,1755606926453,64.62,-60.34,-40.93,778,767,778,350,863,34.48275862068966,-0.91,-0.363,0.208
58274,1755606926482,64.56,-60.35,-40.92,780,762,780,384,869,33.333333333333336,-0.91,-0.363,0.209
58303,1755606926512,64.58,-60.41,-40.95,786,772,779,401,868,34.48275862068966,-0.91,-0.364,0.21
58333,1755606926541,64.57,-60.42,-40.95,777,767,776,358,868,33.333333333333336,-0.91,-0.365,0.209
58362,1755606926571,64.57,-60.37,-40.95,778,762,781,339,867,34.48275862068966,-0.91,-0.366,0.209
58392,1755606926600,64.57,-60.39,-40.95,784,771,782,363,869,33.333333333333336,-0.91,-0.365,0.212
58451,1755606926660,64.57,-60.46,-41.0,778,761,779,385,869,34.48275862068966,-0.908,-0.372,0.207
58570,1755606926778,64.58,-60.46,-41.06,782,771,776,406,866,33.333333333333336,-0.909,-0.369,0.212
58599,1755606926808,64.6,-60.5,-41.09,780,774,781,364,864,34.48275862068966,-0.909,-0.369,0.208
58629,1755606926837,64.62,-60.53,-41.09,782,773,778,351,865,33.333333333333336,-0.909,-0.37,0.206
58658,1755606926867,64.6,-60.56,-41.09,777,771,778,381,866,34.48275862068966,-0.91,-0.368,0.207
58688,1755606926896,64.56,-60.61,-41.11,786,775,778,430,865,33.333333333333336,-0.91,-0.369,0.205
58717,1755606926926,64.55,-60.57,-41.09,778,772,779,395,872,34.48275862068966,-0.91,-0.37,0.206
58776,1755606926985,64.48,-60.61,-41.09,783,774,782,364,862,34.48275862068966,-0.91,-0.37,0.206
58806,1755606927015,64.43,-60.67,-41.07,778,772,776,413,865,33.333333333333336,-0.909,-0.37,0.205
58836,1755606927044,64.37,-60.72,-41.06,781,774,781,417,865,33.333333333333336,-0.908,-0.37,0.206
58865,1755606927073,64.31,-60.82,-41.1,783,773,777,347,865,34.48275862068966,-0.905,-0.368,0.205
58895,1755606927103,64.22,-61.02,-41.2,780,769,776,327,868,33.333333333333336,-0.906,-0.372,0.205
58924,1755606927133,64.14,-61.15,-41.3,781,777,776,399,868,34.48275862068966,-0.907,-0.371,0.207
58954,1755606927162,64.08,-61.2,-41.35,782,774,778,426,871,33.333333333333336,-0.909,-0.371,0.213
58984,1755606927192,64.06,-61.1,-41.33,784,774,776,384,868,33.333333333333336,-0.909,-0.371,0.216
59013,1755606927222,64.1,-61.12,-41.36,780,771,780,351,866,34.48275862068966,-0.905,-0.372,0.214
59043,1755606927252,64.09,-61.15,-41.41,777,773,780,351,862,33.333333333333336,-0.906,-0.374,0.211
59073,1755606927281,64.07,-61.14,-41.46,778,773,776,414,863,33.333333333333336,-0.907,-0.374,0.209
59132,1755606927340,63.99,-61.21,-41.49,783,770,775,355,868,33.333333333333336,-0.906,-0.375,0.212
59161,1755606927370,63.96,-61.22,-41.53,783,778,775,336,869,34.48275862068966,-0.904,-0.377,0.212
59191,1755606927399,64.0,-61.24,-41.59,782,767,775,384,866,33.333333333333336,-0.905,-0.377,0.209
59220,1755606927429,63.95,-61.3,-41.64,778,777,775,425,866,34.48275862068966,-0.905,-0.378,0.207
59250,1755606927459,63.9,-61.36,-41.68,782,778,780,389,865,33.333333333333336,-0.904,-0.38,0.208
59280,1755606927488,63.86,-61.41,-41.7,783,779,776,360,864,33.333333333333336,-0.904,-0.38,0.209
59309,1755606927518,63.82,-61.44,-41.71,784,775,778,364,867,34.48275862068966,-0.902,-0.382,0.208
59339,1755606927547,63.76,-61.5,-41.72,778,776,779,428,861,33.333333333333336,-0.903,-0.382,0.208
59369,1755606927577,63.69,-61.46,-41.7,785,773,778,427,866,33.333333333333336,-0.904,-0.381,0.209
59398,1755606927607,63.69,-61.44,-41.69,775,774,781,358,872,34.48275862068966,-0.903,-0.382,0.213
59457,1755606927667,63.64,-61.46,-41.68,784,773,782,399,863,34.48275862068966,-0.903,-0.382,0.215
59478,1755606927687,63.62,-61.43,-41.66,782,776,776,343,862,47.61904761904762,-0.904,-0.381,0.214
59508,1755606927716,63.6,-61.41,-41.68,780,772,780,379,864,33.333333333333336,-0.9,-0.382,0.211
59538,1755606927746,63.57,-61.46,-41.68,787,771,778,422,865,33.333333333333336,-0.9,-0.383,0.211
59567,1755606927776,63.55,-61.45,-41.68,777,769,787,394,874,34.48275862068966,-0.9,-0.382,0.214
59597,1755606927806,63.57,-61.41,-41.68,783,772,776,333,863,33.333333333333336,-0.9,-0.381,0.219
59627,1755606927835,63.59,-61.37,-41.7,782,778,777,355,873,33.333333333333336,-0.9,-0.382,0.217
59656,1755606927865,63.64,-61.37,-41.7,780,776,774,420,866,34.48275862068966,-0.901,-0.384,0.212
59686,1755606927894,63.62,-61.44,-41.69,777,779,775,419,864,33.333333333333336,-0.901,-0.383,0.213
59715,1755606927924,63.61,-61.5,-41.71,778,769,774,378,865,34.48275862068966,-0.903,-0.382,0.214
59745,1755606927953,63.63,-61.39,-41.68,780,772,777,348,864,33.333333333333336,-0.903,-0.383,0.216
59774,1755606927983,63.67,-61.23,-41.64,780,780,780,399,866,34.48275862068966,-0.903,-0.382,0.218
59804,1755606928012,63.68,-61.2,-41.64,781,769,774,428,862,33.333333333333336,-0.9,-0.383,0.216
59833,1755606928042,63.68,-61.19,-41.64,779,771,780,369,867,34.48275862068966,-0.901,-0.382,0.215
59863,1755606928072,63.66,-61.12,-41.62,782,775,776,346,864,33.333333333333336,-0.901,-0.381,0.215
59893,1755606928101,63.7,-61.1,-41.65,782,767,780,370,869,33.333333333333336,-0.902,-0.379,0.215
59923,1755606928131,63.67,-61.13,-41.68,781,774,780,425,861,33.333333333333336,-0.901,-0.381,0.213
59952,1755606928160,63.67,-61.15,-41.69,783,772,778,425,875,34.48275862068966,-0.902,-0.385,0.213
59982,1755606928190,63.64,-61.19,-41.67,782,771,778,367,859,33.333333333333336,-0.902,-0.382,0.213
60011,1755606928219,63.65,-61.15,-41.7,780,771,776,353,864,34.48275862068966,-0.902,-0.38,0.218
60070,1755606928278,63.68,-61.13,-41.73,785,777,780,432,862,33.333333333333336,-0.899,-0.383,0.213
60129,1755606928338,63.64,-61.24,-41.74,782,776,780,332,864,34.48275862068966,-0.9,-0.382,0.214
60188,1755606928397,63.66,-61.18,-41.75,784,773,778,409,865,34.48275862068966,-0.9,-0.383,0.215
60218,1755606928426,63.68,-61.2,-41.77,783,771,782,358,865,33.333333333333336,-0.901,-0.383,0.214
60248,1755606928456,63.64,-61.19,-41.76,781,777,777,316,866,33.333333333333336,-0.901,-0.384,0.212
60277,1755606928486,63.67,-61.16,-41.76,780,775,781,322,865,34.48275862068966,-0.901,-0.383,0.212
60337,1755606928545,63.67,-61.22,-41.79,781,777,782,412,862,33.333333333333336,-0.901,-0.384,0.212
60366,1755606928574,63.68,-61.21,-41.78,782,777,777,357,869,34.48275862068966,-0.901,-0.384,0.213
60396,1755606928604,63.68,-61.24,-41.76,783,777,775,337,864,33.333333333333336,-0.9,-0.386,0.214
60425,1755606928634,63.78,-61.26,-41.75,776,775,775,358,864,34.48275862068966,-0.898,-0.389,0.215
60455,1755606928663,63.87,-61.24,-41.7,774,772,775,399,864,33.333333333333336,-0.902,-0.383,0.213
60484,1755606928693,63.9,-61.21,-41.71,783,776,777,382,864,34.48275862068966,-0.902,-0.375,0.209
60514,1755606928723,63.89,-61.12,-41.73,778,773,779,332,863,33.333333333333336,-0.903,-0.38,0.203
60544,1755606928753,63.87,-61.19,-41.76,783,777,780,334,864,33.333333333333336,-0.901,-0.385,0.2
60564,1755606928772,63.82,-61.25,-41.75,782,765,779,368,861,50.0,-0.901,-0.387,0.202
60594,1755606928802,63.78,-61.27,-41.76,780,774,778,364,865,33.333333333333336,-0.902,-0.382,0.208
60623,1755606928832,63.68,-61.24,-41.77,783,777,775,407,870,34.48275862068966,-0.901,-0.379,0.21
60653,1755606928862,63.74,-61.28,-41.82,784,775,781,424,863,33.333333333333336,-0.902,-0.38,0.209
60712,1755606928921,63.62,-61.32,-41.88,781,776,778,347,864,34.48275862068966,-0.903,-0.383,0.205
60771,1755606928980,63.53,-61.41,-41.87,782,774,777,409,863,34.48275862068966,-0.904,-0.387,0.209
60860,1755606929068,63.36,-61.28,-41.75,779,769,782,344,863,33.333333333333336,-0.901,-0.384,0.212
60889,1755606929098,63.21,-61.16,-41.63,777,778,781,404,866,34.48275862068966,-0.9,-0.381,0.212
60919,1755606929128,63.21,-61.16,-41.63,778,775,778,411,869,33.333333333333336,-0.903,-0.378,0.213
60949,1755606929157,63.05,-61.07,-41.54,781,775,782,361,866,33.333333333333336,-0.907,-0.379,0.214
60978,1755606929187,63.0,-61.07,-41.51,781,776,780,338,863,34.48275862068966,-0.904,-0.382,0.214
61008,1755606929216,62.95,-61.14,-41.48,784,774,779,380,865,33.333333333333336,-0.901,-0.387,0.217
61037,1755606929246,62.95,-61.19,-41.43,778,773,780,410,859,34.48275862068966,-0.9,-0.384,0.22
61067,1755606929276,62.96,-61.13,-41.4,784,766,774,386,869,33.333333333333336,-0.899,-0.376,0.221
61087,1755606929295,63.01,-61.15,-41.41,781,778,777,404,862,50.0,-0.9,-0.373,0.221
61116,1755606929325,63.02,-61.1,-41.38,782,772,776,365,863,34.48275862068966,-0.903,-0.374,0.222
61146,1755606929355,63.03,-61.06,-41.39,777,773,774,333,869,33.333333333333336,-0.901,-0.376,0.219
61176,1755606929384,63.04,-61.04,-41.38,778,775,781,359,870,33.333333333333336,-0.902,-0.376,0.221
61205,1755606929414,63.05,-61.01,-41.37,782,772,784,411,863,34.48275862068966,-0.902,-0.373,0.224
61235,1755606929443,62.98,-60.96,-41.37,781,768,783,402,865,33.333333333333336,-0.902,-0.369,0.224
61264,1755606929473,62.98,-60.88,-41.42,783,774,779,334,862,34.48275862068966,-0.902,-0.373,0.224
61294,1755606929503,63.0,-60.83,-41.43,780,777,782,330,863,33.333333333333336,-0.903,-0.377,0.224
61324,1755606929532,62.94,-60.8,-41.42,782,786,781,388,862,33.333333333333336,-0.899,-0.374,0.227
61353,1755606929562,62.98,-60.73,-41.47,782,773,778,405,865,34.48275862068966,-0.901,-0.376,0.227
61383,1755606929591,63.04,-60.65,-41.46,784,771,778,393,869,33.333333333333336,-0.903,-0.377,0.225
61412,1755606929621,62.91,-60.65,-41.41,778,772,778,339,864,34.48275862068966,-0.901,-0.378,0.223
61442,1755606929650,62.85,-60.62,-41.37,783,775,782,365,863,33.333333333333336,-0.899,-0.379,0.229
61472,1755606929680,62.93,-60.53,-41.35,782,777,782,427,869,33.333333333333336,-0.901,-0.381,0.228
61531,1755606929740,62.83,-60.74,-41.3,778,778,777,337,865,33.333333333333336,-0.904,-0.376,0.211
61561,1755606929769,62.76,-60.78,-41.26,776,773,777,341,867,33.333333333333336,-0.907,-0.377,0.215
61590,1755606929799,62.69,-60.87,-41.21,777,767,778,407,861,34.48275862068966,-0.903,-0.376,0.219
61620,1755606929829,62.56,-61.0,-41.2,779,768,777,413,863,33.333333333333336,-0.9,-0.372,0.224
61640,1755606929848,62.49,-61.01,-41.19,780,772,780,368,867,50.0,-0.903,-0.37,0.232
61670,1755606929878,62.51,-60.97,-41.17,783,774,781,393,865,33.333333333333336,-0.903,-0.37,0.237
61699,1755606929908,62.49,-60.9,-41.17,781,773,780,347,860,34.48275862068966,-0.902,-0.369,0.238
61729,1755606929937,62.43,-60.83,-41.18,777,776,776,288,864,33.333333333333336,-0.901,-0.368,0.238
61758,1755606929967,62.41,-60.72,-41.2,783,773,782,336,866,34.48275862068966,-0.9,-0.367,0.239
61788,1755606929996,62.42,-60.61,-41.26,784,771,783,400,860,33.333333333333336,-0.9,-0.367,0.239
61818,1755606930026,62.41,-60.53,-41.32,775,777,775,393,862,33.333333333333336,-0.9,-0.369,0.238
61877,1755606930085,62.32,-60.47,-41.51,780,772,778,346,865,33.333333333333336,-0.898,-0.375,0.237
61966,1755606930175,62.23,-60.35,-41.57,782,779,781,365,867,33.333333333333336,-0.9,-0.374,0.234
61996,1755606930204,62.22,-60.31,-41.64,783,776,780,326,864,33.333333333333336,-0.896,-0.38,0.238
62026,1755606930234,62.23,-60.25,-41.62,780,772,780,352,865,33.333333333333336,-0.895,-0.379,0.242
62085,1755606930294,62.47,-60.22,-41.73,783,771,778,401,860,33.333333333333336,-0.895,-0.381,0.237
62115,1755606930323,62.5,-60.2,-41.73,783,776,781,350,870,33.333333333333336,-0.894,-0.383,0.231
62144,1755606930353,62.44,-60.3,-41.74,782,774,778,331,861,34.48275862068966,-0.896,-0.379,0.23
62174,1755606930382,62.41,-60.34,-41.81,782,774,779,379,860,33.333333333333336,-0.895,-0.377,0.236
62203,1755606930412,62.45,-60.26,-41.87,784,776,782,414,865,34.48275862068966,-0.896,-0.379,0.241
62223,1755606930432,62.5,-60.19,-41.89,783,772,780,368,868,50.0,-0.898,-0.38,0.242
62253,1755606930461,62.51,-60.15,-41.9,784,770,778,409,863,33.333333333333336,-0.896,-0.382,0.242
62283,1755606930491,62.48,-60.04,-41.94,781,772,778,369,870,33.333333333333336,-0.896,-0.384,0.235
62312,1755606930521,62.43,-60.03,-42.01,782,772,780,337,859,34.48275862068966,-0.897,-0.385,0.231
62332,1755606930541,62.44,-60.07,-42.01,781,776,779,353,864,50.0,-0.898,-0.386,0.233
62362,1755606930570,62.43,-59.98,-41.97,783,773,780,349,865,33.333333333333336,-0.895,-0.388,0.236
62392,1755606930600,62.3,-59.86,-41.89,779,775,780,378,865,33.333333333333336,-0.893,-0.392,0.235
62421,1755606930630,62.16,-59.81,-41.81,775,772,777,413,862,34.48275862068966,-0.891,-0.388,0.236
62451,1755606930659,62.26,-59.81,-41.84,779,775,783,405,862,33.333333333333336,-0.894,-0.38,0.241
62481,1755606930689,62.35,-59.71,-41.89,781,778,777,352,861,33.333333333333336,-0.895,-0.376,0.244
62531,1755606930739,62.41,-59.37,-41.95,781,772,778,377,864,47.61904761904762,-0.895,-0.374,0.244
62560,1755606930769,62.49,-59.34,-42.01,780,774,777,352,859,34.48275862068966,-0.896,-0.379,0.238
62590,1755606930798,62.52,-59.36,-42.04,783,776,779,412,862,33.333333333333336,-0.895,-0.384,0.235
62620,1755606930828,62.57,-59.33,-42.08,780,774,777,427,863,33.333333333333336,-0.895,-0.386,0.232
62679,1755606930887,62.62,-59.34,-42.09,782,778,779,349,859,33.333333333333336,-0.895,-0.387,0.23
62708,1755606930917,62.62,-59.47,-42.11,777,774,776,389,861,34.48275862068966,-0.896,-0.386,0.229
62738,1755606930946,62.56,-59.49,-42.12,781,777,781,429,862,33.333333333333336,-0.898,-0.382,0.229
62827,1755606931035,62.34,-59.45,-42.29,782,775,776,304,860,33.333333333333336,-0.895,-0.381,0.239
62856,1755606931065,62.41,-59.44,-42.37,783,769,779,335,866,34.48275862068966,-0.891,-0.387,0.242
62886,1755606931095,62.42,-59.52,-42.43,778,766,779,385,869,33.333333333333336,-0.889,-0.392,0.24
62916,1755606931125,62.36,-59.59,-42.47,780,779,777,369,869,33.333333333333336,-0.89,-0.394,0.24
62946,1755606931154,62.32,-59.61,-42.5,781,778,780,323,867,33.333333333333336,-0.894,-0.394,0.238
62975,1755606931184,62.24,-59.64,-42.46,776,772,779,352,865,34.48275862068966,-0.898,-0.394,0.233
63005,1755606931214,62.14,-59.73,-42.47,782,774,781,416,863,33.333333333333336,-0.893,-0.393,0.233
63035,1755606931243,62.05,-59.75,-42.49,786,773,778,422,862,33.333333333333336,-0.89,-0.393,0.241
63064,1755606931273,62.05,-59.63,-42.47,783,772,778,359,866,34.48275862068966,-0.891,-0.394,0.245
63094,1755606931302,62.05,-59.57,-42.45,780,773,781,331,869,33.333333333333336,-0.889,-0.396,0.244
63123,1755606931332,62.07,-59.56,-42.43,781,773,780,384,863,34.48275862068966,-0.888,-0.394,0.244
63153,1755606931362,62.01,-59.51,-42.43,784,766,780,411,868,33.333333333333336,-0.888,-0.391,0.244
63183,1755606931392,62.06,-59.45,-42.44,783,771,781,367,864,33.333333333333336,-0.891,-0.395,0.245
63213,1755606931421,62.09,-59.41,-42.41,781,773,783,338,864,33.333333333333336,-0.888,-0.395,0.241
63242,1755606931451,62.04,-59.47,-42.4,775,772,780,367,864,34.48275862068966,-0.889,-0.394,0.239
63272,1755606931480,62.05,-59.47,-42.39,782,773,779,411,862,33.333333333333336,-0.888,-0.394,0.242
63301,1755606931510,62.11,-59.43,-42.4,784,776,778,413,860,34.48275862068966,-0.89,-0.392,0.245
63331,1755606931540,62.15,-59.37,-42.4,781,773,779,347,861,33.333333333333336,-0.889,-0.391,0.244
63361,1755606931570,62.13,-59.35,-42.4,783,776,778,331,869,33.333333333333336,-0.889,-0.391,0.241
63381,1755606931589,62.11,-59.32,-42.39,783,774,779,389,866,50.0,-0.891,-0.393,0.241
63410,1755606931619,62.15,-59.29,-42.4,777,778,780,374,863,34.48275862068966,-0.888,-0.394,0.241
63440,1755606931649,62.19,-59.24,-42.4,782,770,781,391,862,33.333333333333336,-0.889,-0.392,0.242
63470,1755606931679,62.19,-59.24,-42.41,775,772,779,419,863,33.333333333333336,-0.891,-0.392,0.239
63500,1755606931708,62.19,-59.28,-42.41,777,770,774,388,872,33.333333333333336,-0.89,-0.39,0.237
63529,1755606931738,62.18,-59.34,-42.42,781,775,774,358,866,34.48275862068966,-0.889,-0.391,0.237
63559,1755606931767,62.25,-59.37,-42.45,781,772,779,354,859,33.333333333333336,-0.892,-0.392,0.239
63588,1755606931797,62.26,-59.35,-42.45,783,775,780,403,862,34.48275862068966,-0.892,-0.392,0.235
63618,1755606931826,62.24,-59.42,-42.47,783,773,773,398,863,33.333333333333336,-0.892,-0.393,0.236
63647,1755606931856,62.22,-59.42,-42.47,781,767,780,348,861,34.48275862068966,-0.892,-0.392,0.24
63677,1755606931886,62.24,-59.37,-42.46,780,779,776,337,868,33.333333333333336,-0.892,-0.392,0.241
63707,1755606931915,62.22,-59.36,-42.48,779,775,781,394,861,33.333333333333336,-0.891,-0.391,0.238
63736,1755606931945,62.19,-59.39,-42.51,782,778,781,433,861,34.48275862068966,-0.891,-0.391,0.237
63766,1755606931974,62.23,-59.42,-42.55,778,770,775,386,864,33.333333333333336,-0.892,-0.393,0.238
63825,1755606932033,62.28,-59.39,-42.63,781,773,776,360,866,34.48275862068966,-0.888,-0.397,0.237
63855,1755606932063,62.27,-59.44,-42.62,783,777,781,421,872,33.333333333333336,-0.89,-0.399,0.233
63884,1755606932092,62.2,-59.5,-42.57,779,766,779,407,862,34.48275862068966,-0.892,-0.398,0.231
63914,1755606932122,62.09,-59.54,-42.55,783,774,783,345,864,33.333333333333336,-0.893,-0.392,0.234
63943,1755606932152,61.98,-59.47,-42.56,777,775,783,346,863,34.48275862068966,-0.891,-0.393,0.239
63973,1755606932181,62.01,-59.4,-42.56,782,776,775,393,868,33.333333333333336,-0.89,-0.396,0.243
64002,1755606932211,61.94,-59.31,-42.52,782,773,777,421,859,34.48275862068966,-0.889,-0.395,0.243
64032,1755606932240,61.98,-59.3,-42.49,782,773,779,373,864,33.333333333333336,-0.888,-0.395,0.243
64091,1755606932299,61.91,-59.28,-42.56,783,778,780,368,866,33.333333333333336,-0.885,-0.389,0.232
64120,1755606932329,62.09,-59.4,-42.73,776,772,781,420,864,34.48275862068966,-0.886,-0.391,0.233
64179,1755606932388,62.09,-59.38,-42.77,781,775,775,344,865,34.48275862068966,-0.887,-0.401,0.237
64239,1755606932448,62.05,-59.49,-42.73,777,771,781,395,864,33.333333333333336,-0.886,-0.402,0.235
64259,1755606932467,62.06,-59.54,-42.71,782,775,777,330,864,50.0,-0.889,-0.4,0.233
64288,1755606932497,62.02,-59.54,-42.68,777,772,774,405,865,34.48275862068966,-0.89,-0.398,0.23
64318,1755606932526,61.97,-59.62,-42.67,780,773,779,395,873,33.333333333333336,-0.891,-0.399,0.23
64347,1755606932555,61.9,-59.7,-42.62,784,774,779,330,869,34.48275862068966,-0.889,-0.401,0.232
64377,1755606932585,61.92,-59.76,-42.59,783,774,778,315,867,33.333333333333336,-0.888,-0.399,0.237
64406,1755606932614,61.88,-59.79,-42.56,783,769,776,390,862,34.48275862068966,-0.889,-0.396,0.238
64436,1755606932644,61.91,-59.76,-42.54,779,771,780,396,863,33.333333333333336,-0.889,-0.395,0.236
64465,1755606932674,61.86,-59.71,-42.53,781,767,779,351,864,34.48275862068966,-0.889,-0.394,0.234
64495,1755606932703,61.79,-59.7,-42.54,783,773,776,345,866,33.333333333333336,-0.89,-0.396,0.235
64524,1755606932733,61.76,-59.26,-42.52,780,771,780,374,869,34.48275862068966,-0.889,-0.397,0.236
64554,1755606932763,61.74,-59.25,-42.53,780,779,778,409,863,33.333333333333336,-0.888,-0.396,0.235
64584,1755606932792,61.81,-59.29,-42.59,775,772,777,405,876,33.333333333333336,-0.889,-0.397,0.236
64613,1755606932822,61.97,-59.36,-42.69,781,772,779,341,865,34.48275862068966,-0.886,-0.396,0.233
64643,1755606932851,61.98,-59.39,-42.69,779,774,777,346,868,33.333333333333336,-0.89,-0.398,0.235
64672,1755606932881,61.82,-59.36,-42.64,780,769,782,413,864,34.48275862068966,-0.889,-0.398,0.231
64702,1755606932911,61.85,-59.43,-42.65,784,783,778,423,863,33.333333333333336,-0.89,-0.398,0.23
64732,1755606932940,61.79,-59.46,-42.64,780,778,777,362,864,33.333333333333336,-0.888,-0.399,0.23
64762,1755606932970,61.75,-59.51,-42.63,774,776,777,336,862,33.333333333333336,-0.89,-0.399,0.232
64791,1755606932999,61.66,-59.51,-42.61,781,775,782,371,861,34.48275862068966,-0.89,-0.398,0.232
64820,1755606933030,61.65,-59.57,-42.61,780,768,783,399,865,34.48275862068966,-0.889,-0.399,0.235
64841,1755606933050,61.65,-59.6,-42.61,781,775,778,346,863,47.61904761904762,-0.888,-0.399,0.238
64861,1755606933069,61.67,-59.62,-42.62,781,775,781,343,864,50.0,-0.887,-0.399,0.242
64890,1755606933099,61.75,-59.57,-42.63,781,768,780,387,860,34.48275862068966,-0.886,-0.396,0.24
64920,1755606933129,61.77,-59.52,-42.68,777,782,780,418,865,33.333333333333336,-0.888,-0.396,0.235
64950,1755606933159,61.82,-59.56,-42.71,784,775,779,397,864,33.333333333333336,-0.89,-0.401,0.233
64980,1755606933189,61.8,-59.59,-42.7,781,776,779,305,869,33.333333333333336,-0.89,-0.403,0.233
65010,1755606933218,61.75,-59.64,-42.69,779,770,780,319,861,33.333333333333336,-0.888,-0.402,0.231
65099,1755606933307,61.75,-59.71,-42.72,780,776,780,380,867,33.333333333333336,-0.89,-0.403,0.235
65128,1755606933337,61.71,-59.74,-42.69,779,778,773,344,865,34.48275862068966,-0.888,-0.401,0.234
65158,1755606933367,61.67,-59.75,-42.69,779,775,778,381,871,33.333333333333336,-0.888,-0.4,0.233
65218,1755606933426,61.76,-59.85,-42.73,782,778,779,404,866,33.333333333333336,-0.889,-0.401,0.234
65247,1755606933456,61.71,-59.84,-42.74,781,774,781,348,866,34.48275862068966,-0.889,-0.399,0.236
65277,1755606933486,61.73,-59.8,-42.74,777,774,775,349,861,33.333333333333336,-0.89,-0.401,0.235
65307,1755606933515,61.76,-59.84,-42.75,778,776,782,406,861,33.333333333333336,-0.889,-0.402,0.23
65336,1755606933545,61.71,-59.88,-42.76,780,773,778,438,865,34.48275862068966,-0.889,-0.404,0.229
65366,1755606933574,61.68,-59.91,-42.75,779,773,774,375,859,33.333333333333336,-0.888,-0.403,0.231
65395,1755606933604,61.62,-59.92,-42.75,781,767,779,335,862,34.48275862068966,-0.888,-0.399,0.231
65425,1755606933633,61.64,-59.89,-42.75,780,775,779,368,864,33.333333333333336,-0.89,-0.4,0.234
65455,1755606933663,61.62,-59.92,-42.76,781,780,776,418,860,33.333333333333336,-0.888,-0.401,0.233
65534,1755606933742,61.66,-59.97,-42.8,774,773,777,407,862,33.333333333333336,-0.888,-0.401,0.238
65563,1755606933772,61.67,-59.92,-42.8,783,767,779,338,863,34.48275862068966,-0.889,-0.403,0.237
