timestamp_ms,recv_timestamp_ms,pitch,roll,yaw,flex1,flex2,flex3,flex4,flex5,sampling_hz,accel_x,accel_y,accel_z
37138,1755604329556,81.69,-65.52,-27.2,784,902,853,390,904,33.333333333333336,-0.995,-0.139,0.065
37167,1755604329558,81.69,-65.52,-27.2,782,896,845,333,903,34.48275862068966,-0.992,-0.138,0.064
37197,1755604329560,81.7,-65.48,-27.19,790,889,845,351,907,33.333333333333336,-0.994,-0.137,0.063
37226,1755604329562,81.7,-65.49,-27.19,784,885,853,434,900,34.48275862068966,-0.995,-0.137,0.063
37256,1755604329564,81.72,-65.49,-27.2,785,891,855,419,919,33.333333333333336,-0.994,-0.137,0.064
37286,1755604329566,81.71,-65.46,-27.19,790,902,848,356,904,33.333333333333336,-0.993,-0.136,0.063
37315,1755604329568,81.71,-65.46,-27.2,785,903,847,337,900,34.48275862068966,-0.993,-0.135,0.064
37345,1755604329570,81.71,-65.46,-27.22,785,896,855,384,907,33.333333333333336,-0.993,-0.134,0.064
37375,1755604329572,81.67,-65.42,-27.23,788,897,849,423,900,33.333333333333336,-0.992,-0.134,0.064
37404,1755604329574,81.68,-65.4,-27.24,779,893,857,376,899,34.48275862068966,-0.993,-0.135,0.064
37434,1755604329576,81.66,-65.43,-27.26,789,890,849,328,915,33.333333333333336,-0.991,-0.134,0.064
37463,1755604329578,81.68,-65.37,-27.28,789,892,851,351,909,34.48275862068966,-0.993,-0.134,0.065
37493,1755604329580,81.65,-65.37,-27.3,785,898,850,425,900,33.333333333333336,-0.992,-0.134,0.065
37522,1755604329582,81.66,-65.32,-27.32,785,887,871,392,896,34.48275862068966,-0.993,-0.134,0.066
37552,1755604329584,81.65,-65.31,-27.34,788,884,857,326,908,33.333333333333336,-0.992,-0.134,0.065
37582,1755604329586,81.66,-65.23,-27.35,789,899,858,339,907,33.333333333333336,-0.994,-0.135,0.067
37641,1755604329590,81.69,-65.17,-27.36,790,896,863,430,909,33.333333333333336,-0.994,-0.137,0.066
37670,1755604329608,81.67,-65.12,-27.36,789,898,845,370,905,34.48275862068966,-0.993,-0.136,0.065
37700,1755604329638,81.68,-65.1,-27.38,790,889,857,309,906,33.333333333333336,-0.992,-0.135,0.065
37730,1755604329667,81.67,-65.08,-27.4,787,902,871,356,907,33.333333333333336,-0.992,-0.135,0.066
37759,1755604329697,81.65,-65.04,-27.43,782,899,856,410,911,34.48275862068966,-0.993,-0.135,0.067
37788,1755604329726,81.61,-65.01,-27.44,778,898,857,406,903,34.48275862068966,-0.993,-0.136,0.066
37818,1755604329756,81.62,-64.95,-27.46,789,888,848,333,901,33.333333333333336,-0.993,-0.137,0.067
37848,1755604329786,81.6,-64.92,-27.5,789,891,857,346,908,33.333333333333336,-0.993,-0.137,0.067
37877,1755604329815,81.56,-64.92,-27.52,785,889,855,409,916,34.48275862068966,-0.993,-0.139,0.066
37907,1755604329844,81.58,-64.9,-27.52,783,893,853,412,903,33.333333333333336,-0.996,-0.139,0.065
37936,1755604329874,81.55,-64.88,-27.51,786,893,857,357,916,34.48275862068966,-0.996,-0.138,0.066
37966,1755604329904,81.59,-64.82,-27.51,790,897,851,336,908,33.333333333333336,-0.993,-0.137,0.068
37995,1755604329934,81.59,-64.79,-27.54,781,895,852,370,905,34.48275862068966,-0.99,-0.136,0.068
38015,1755604329953,81.6,-64.76,-27.56,780,892,855,329,899,50.0,-0.989,-0.136,0.068
38045,1755604329983,81.58,-64.7,-27.59,782,892,856,381,917,33.333333333333336,-0.991,-0.138,0.067
38074,1755604330013,81.57,-64.72,-27.61,781,888,856,399,903,34.48275862068966,-0.992,-0.139,0.064
38104,1755604330042,81.56,-64.72,-27.61,781,890,854,380,909,33.333333333333336,-0.994,-0.138,0.064
38134,1755604330072,81.56,-64.73,-27.62,787,898,854,284,909,33.333333333333336,-0.991,-0.137,0.064
38163,1755604330102,81.57,-64.72,-27.64,786,895,862,327,895,34.48275862068966,-0.991,-0.137,0.065
38193,1755604330131,81.55,-64.75,-27.67,785,903,859,402,909,33.333333333333336,-0.991,-0.137,0.066
38222,1755604330160,81.55,-64.7,-27.68,791,890,857,396,910,34.48275862068966,-0.993,-0.137,0.068
38252,1755604330190,81.56,-64.69,-27.69,789,894,854,322,901,33.333333333333336,-0.993,-0.138,0.067
38282,1755604330220,81.54,-64.68,-27.7,795,893,850,328,903,33.333333333333336,-0.992,-0.137,0.068
38311,1755604330249,81.54,-64.64,-27.72,788,895,852,391,908,34.48275862068966,-0.991,-0.137,0.068
38341,1755604330279,81.55,-64.62,-27.75,787,894,859,423,911,33.333333333333336,-0.993,-0.138,0.069
38371,1755604330308,81.57,-64.58,-27.76,779,896,862,391,910,33.333333333333336,-0.993,-0.139,0.069
38400,1755604330338,81.59,-64.55,-27.77,787,895,857,329,899,34.48275862068966,-0.994,-0.14,0.069
38430,1755604330367,81.6,-64.52,-27.78,786,896,862,358,904,33.333333333333336,-0.992,-0.14,0.068
38459,1755604330397,81.63,-64.5,-27.79,787,899,854,417,908,34.48275862068966,-0.992,-0.139,0.066
38489,1755604330427,81.64,-64.5,-27.81,785,899,847,417,910,33.333333333333336,-0.992,-0.139,0.066
38518,1755604330456,81.6,-64.48,-27.82,779,890,857,346,909,34.48275862068966,-0.992,-0.138,0.065
38548,1755604330486,81.57,-64.49,-27.84,783,894,858,351,913,33.333333333333336,-0.99,-0.138,0.064
38578,1755604330516,81.55,-64.48,-27.87,787,892,865,415,914,33.333333333333336,-0.991,-0.138,0.066
38598,1755604330536,81.52,-64.48,-27.89,785,886,858,358,908,50.0,-0.991,-0.138,0.066
38627,1755604330566,81.48,-64.46,-27.91,787,889,863,381,896,34.48275862068966,-0.993,-0.139,0.067
38648,1755604330585,81.45,-64.45,-27.91,788,888,847,329,906,47.61904761904762,-0.992,-0.139,0.068
38677,1755604330615,81.44,-64.42,-27.94,787,891,862,398,906,34.48275862068966,-0.991,-0.14,0.068
38707,1755604330645,81.44,-64.44,-27.97,792,897,865,414,906,33.333333333333336,-0.992,-0.141,0.068
38736,1755604330674,81.41,-64.42,-27.99,787,899,854,368,903,34.48275862068966,-0.992,-0.141,0.068
38766,1755604330704,81.4,-64.42,-28.0,785,896,861,324,902,33.333333333333336,-0.993,-0.142,0.069
38795,1755604330733,81.4,-64.43,-28.0,792,894,848,375,905,34.48275862068966,-0.994,-0.142,0.07
38825,1755604330763,81.39,-64.39,-28.0,787,896,858,410,902,33.333333333333336,-0.994,-0.142,0.071
38854,1755604330792,81.41,-64.35,-28.01,786,891,856,387,910,34.48275862068966,-0.993,-0.141,0.073
38884,1755604330822,81.43,-64.29,-28.01,782,900,855,324,905,33.333333333333336,-0.992,-0.142,0.073
38913,1755604330851,81.47,-64.24,-28.03,793,888,856,343,904,34.48275862068966,-0.992,-0.142,0.072
38943,1755604330881,81.48,-64.22,-28.04,784,893,863,406,904,33.333333333333336,-0.991,-0.142,0.07
38973,1755604330911,81.49,-64.18,-28.03,787,893,863,417,907,33.333333333333336,-0.993,-0.142,0.069
39003,1755604330941,81.49,-64.18,-28.04,786,893,856,365,906,33.333333333333336,-0.993,-0.142,0.068
39032,1755604330970,81.51,-64.14,-28.02,783,888,855,337,912,34.48275862068966,-0.992,-0.141,0.069
39062,1755604331000,81.51,-64.13,-28.03,784,893,853,386,907,33.333333333333336,-0.992,-0.141,0.069
39082,1755604331020,81.54,-64.13,-28.04,781,889,856,349,903,50.0,-0.993,-0.142,0.07
39111,1755604331049,81.57,-64.11,-28.03,789,890,865,395,905,34.48275862068966,-0.993,-0.142,0.07
39141,1755604331079,81.61,-64.1,-28.04,785,895,852,430,903,33.333333333333336,-0.993,-0.141,0.069
39171,1755604331109,81.65,-64.11,-28.05,784,903,863,389,903,33.333333333333336,-0.991,-0.14,0.067
39201,1755604331138,81.66,-64.13,-28.07,790,899,850,326,907,33.333333333333336,-0.992,-0.138,0.066
39230,1755604331168,81.63,-64.18,-28.1,784,899,856,333,900,34.48275862068966,-0.991,-0.138,0.066
39260,1755604331198,81.6,-64.16,-28.12,785,894,854,401,911,33.333333333333336,-0.992,-0.139,0.068
39290,1755604331228,81.57,-64.18,-28.14,785,895,858,397,905,33.333333333333336,-0.992,-0.14,0.068
39319,1755604331257,81.55,-64.15,-28.15,782,883,851,340,896,34.48275862068966,-0.994,-0.14,0.069
39349,1755604331287,81.54,-64.17,-28.15,784,895,852,337,909,33.333333333333336,-0.993,-0.141,0.07
39378,1755604331317,81.56,-64.14,-28.17,792,891,854,378,918,34.48275862068966,-0.994,-0.14,0.07
39408,1755604331346,81.6,-64.13,-28.18,785,896,863,429,901,33.333333333333336,-0.993,-0.138,0.068
39438,1755604331376,81.58,-64.1,-28.19,786,890,853,394,907,33.333333333333336,-0.991,-0.136,0.069
39467,1755604331405,81.56,-64.03,-28.23,785,892,858,319,906,34.48275862068966,-0.986,-0.135,0.07
39497,1755604331435,81.56,-63.95,-28.32,791,894,855,342,908,33.333333333333336,-0.986,-0.135,0.072
39526,1755604331465,81.5,-63.86,-28.39,784,888,845,425,913,34.48275862068966,-0.988,-0.136,0.073
39556,1755604331494,81.42,-63.78,-28.44,783,893,866,435,907,33.333333333333336,-0.99,-0.142,0.071
39586,1755604331524,81.39,-63.77,-28.45,785,896,846,355,910,33.333333333333336,-0.993,-0.15,0.068
39615,1755604331553,81.44,-63.85,-28.44,786,893,850,336,907,34.48275862068966,-0.996,-0.151,0.063
39645,1755604331583,81.42,-63.9,-28.41,778,893,852,391,908,33.333333333333336,-0.993,-0.146,0.063
39674,1755604331612,81.38,-63.95,-28.43,782,895,859,441,905,34.48275862068966,-0.989,-0.143,0.065
39704,1755604331642,81.29,-63.93,-28.46,786,899,853,391,905,33.333333333333336,-0.991,-0.141,0.069
39734,1755604331671,81.2,-63.9,-28.48,786,899,856,309,904,33.333333333333336,-0.991,-0.142,0.071
39793,1755604331730,81.13,-63.83,-28.48,785,899,860,408,905,33.333333333333336,-0.991,-0.147,0.073
39822,1755604331760,81.14,-63.83,-28.48,779,904,835,420,907,34.48275862068966,-0.992,-0.145,0.072
39852,1755604331790,81.12,-63.86,-28.5,785,890,853,331,903,33.333333333333336,-0.993,-0.144,0.071
39881,1755604331819,81.1,-63.89,-28.53,786,894,853,331,903,34.48275862068966,-0.991,-0.142,0.071
39911,1755604331849,81.09,-63.87,-28.57,790,892,854,395,904,33.333333333333336,-0.99,-0.14,0.073
39941,1755604331879,81.05,-63.85,-28.64,790,899,849,413,902,33.333333333333336,-0.991,-0.141,0.077
39970,1755604331908,80.98,-63.78,-28.67,785,900,850,378,905,34.48275862068966,-0.99,-0.144,0.077
40000,1755604331938,80.93,-63.69,-28.67,791,890,868,322,900,33.333333333333336,-0.992,-0.147,0.075
40029,1755604331967,80.91,-63.68,-28.66,786,894,860,368,905,34.48275862068966,-0.994,-0.147,0.073
40059,1755604331997,80.9,-63.69,-28.66,790,900,852,443,900,33.333333333333336,-0.993,-0.146,0.072
40088,1755604332026,80.85,-63.7,-28.65,785,902,851,423,904,34.48275862068966,-0.993,-0.144,0.073
40118,1755604332056,80.73,-63.7,-28.64,790,895,861,352,898,33.333333333333336,-0.991,-0.143,0.075
40147,1755604332086,80.67,-63.72,-28.67,779,890,855,348,903,34.48275862068966,-0.988,-0.145,0.079
40167,1755604332105,80.67,-63.69,-28.7,785,902,856,377,900,50.0,-0.987,-0.146,0.083
40197,1755604332135,80.66,-63.64,-28.73,781,887,850,355,910,33.333333333333336,-0.988,-0.147,0.086
40227,1755604332165,80.62,-63.55,-28.74,781,898,853,416,907,33.333333333333336,-0.989,-0.148,0.087
40256,1755604332194,80.57,-63.48,-28.75,787,893,859,421,901,34.48275862068966,-0.991,-0.149,0.084
40286,1755604332224,80.55,-63.44,-28.73,785,889,857,376,906,33.333333333333336,-0.994,-0.15,0.085
40316,1755604332254,80.56,-63.36,-28.69,786,893,861,332,906,33.333333333333336,-0.995,-0.149,0.087
40346,1755604332283,80.59,-63.3,-28.68,784,893,841,352,904,33.333333333333336,-0.989,-0.151,0.089
40375,1755604332313,80.67,-63.22,-28.67,785,885,854,437,901,34.48275862068966,-0.985,-0.153,0.089
40404,1755604332342,80.76,-63.22,-28.68,784,894,859,409,903,34.48275862068966,-0.986,-0.148,0.085
40434,1755604332372,80.8,-63.19,-28.7,784,882,863,336,907,33.333333333333336,-0.989,-0.139,0.086
40463,1755604332401,80.81,-63.14,-28.77,788,894,852,352,905,34.48275862068966,-0.986,-0.132,0.087
40493,1755604332431,80.84,-63.04,-28.87,786,888,859,380,905,33.333333333333336,-0.987,-0.132,0.09
40523,1755604332461,80.81,-62.96,-28.92,788,890,856,402,906,33.333333333333336,-0.989,-0.135,0.088
40552,1755604332490,80.8,-62.97,-28.99,788,891,859,343,901,34.48275862068966,-0.989,-0.14,0.081
40582,1755604332520,81.02,-63.16,-29.13,787,894,852,333,901,33.333333333333336,-0.991,-0.145,0.076
40611,1755604332549,81.21,-63.3,-29.24,783,898,854,372,902,34.48275862068966,-0.993,-0.147,0.075
40641,1755604332579,81.25,-63.34,-29.31,787,894,867,408,910,33.333333333333336,-0.994,-0.15,0.076
40670,1755604332608,81.16,-63.38,-29.37,786,894,858,396,902,34.48275862068966,-0.988,-0.158,0.08
40700,1755604332638,81.25,-63.37,-29.45,785,893,849,333,910,33.333333333333336,-0.992,-0.162,0.081
40729,1755604332667,80.8,-63.32,-29.42,788,899,856,343,902,34.48275862068966,-0.998,-0.16,0.084
40759,1755604332697,80.84,-63.22,-29.36,785,887,853,412,908,33.333333333333336,-0.996,-0.16,0.085
40789,1755604332727,80.98,-63.18,-29.34,789,887,859,409,900,33.333333333333336,-0.992,-0.157,0.082
40818,1755604332756,81.12,-63.13,-29.36,781,897,853,327,907,34.48275862068966,-0.991,-0.155,0.078
40848,1755604332786,81.2,-63.08,-29.35,789,897,855,319,906,33.333333333333336,-0.992,-0.153,0.076
40877,1755604332815,81.22,-63.05,-29.33,785,895,858,394,905,34.48275862068966,-0.991,-0.153,0.073
40907,1755604332845,81.3,-63.15,-29.36,787,895,854,430,904,33.333333333333336,-0.989,-0.15,0.067
40936,1755604332875,81.34,-63.27,-29.4,789,892,855,366,907,34.48275862068966,-0.99,-0.148,0.064
40956,1755604332894,81.31,-63.35,-29.43,787,893,858,395,914,50.0,-0.988,-0.146,0.064
40986,1755604332924,81.26,-63.44,-29.51,786,891,860,365,911,33.333333333333336,-0.986,-0.145,0.065
41015,1755604332953,81.38,-63.53,-29.64,785,888,848,331,895,34.48275862068966,-0.989,-0.147,0.065
41045,1755604332983,81.43,-63.56,-29.72,785,896,855,350,901,33.333333333333336,-0.993,-0.153,0.067
41074,1755604333012,81.43,-63.63,-29.76,791,892,860,425,904,34.48275862068966,-0.99,-0.161,0.067
41104,1755604333043,81.47,-63.64,-29.77,788,893,855,401,905,33.333333333333336,-0.993,-0.161,0.066
41134,1755604333072,81.47,-63.67,-29.76,786,903,842,337,905,33.333333333333336,-0.994,-0.159,0.061
41163,1755604333102,81.5,-63.78,-29.75,786,895,851,337,900,34.48275862068966,-0.994,-0.159,0.055
41193,1755604333131,81.45,-64.0,-29.75,785,891,849,412,914,33.333333333333336,-0.988,-0.16,0.054
41223,1755604333161,81.36,-64.11,-29.77,783,892,858,428,905,33.333333333333336,-0.983,-0.158,0.058
41252,1755604333190,81.34,-64.18,-29.83,778,899,855,375,896,34.48275862068966,-0.987,-0.156,0.056
41282,1755604333220,81.3,-64.25,-29.85,787,899,857,303,906,33.333333333333336,-0.995,-0.157,0.057
41311,1755604333250,81.25,-64.36,-29.85,786,895,859,351,906,34.48275862068966,-0.991,-0.161,0.061
41341,1755604333279,81.2,-64.33,-29.82,783,892,855,425,910,33.333333333333336,-0.989,-0.162,0.064
41371,1755604333309,81.18,-64.39,-29.82,784,887,850,417,895,33.333333333333336,-0.989,-0.164,0.06
41400,1755604333339,81.23,-64.47,-29.83,787,889,852,336,899,34.48275862068966,-0.99,-0.163,0.057
41430,1755604333368,81.21,-64.59,-29.82,788,886,858,330,901,33.333333333333336,-0.99,-0.164,0.054
41460,1755604333398,81.19,-64.76,-29.81,784,895,871,418,907,33.333333333333336,-0.992,-0.165,0.052
41490,1755604333428,81.13,-64.98,-29.76,787,889,840,434,913,33.333333333333336,-0.99,-0.164,0.052
41519,1755604333457,81.03,-65.17,-29.72,789,892,850,379,901,34.48275862068966,-0.987,-0.16,0.055
41549,1755604333487,81.01,-65.23,-29.72,780,888,856,334,905,33.333333333333336,-0.99,-0.156,0.06
41578,1755604333516,81.03,-65.28,-29.75,788,895,852,370,898,34.48275862068966,-0.99,-0.153,0.063
41608,1755604333546,81.08,-65.27,-29.78,787,897,846,428,897,33.333333333333336,-0.987,-0.154,0.068
41638,1755604333576,81.1,-65.23,-29.81,793,894,861,405,908,33.333333333333336,-0.984,-0.156,0.071
41667,1755604333606,81.19,-65.17,-29.86,786,897,844,329,908,34.48275862068966,-0.987,-0.157,0.069
41687,1755604333625,81.25,-65.18,-29.88,790,890,862,427,901,50.0,-0.991,-0.158,0.065
41717,1755604333655,81.34,-65.21,-29.9,787,900,849,305,905,33.333333333333336,-0.994,-0.154,0.062
41746,1755604333685,81.35,-65.25,-29.94,785,896,851,337,906,34.48275862068966,-0.989,-0.157,0.062
41776,1755604333715,81.45,-65.28,-29.97,785,897,853,418,902,33.333333333333336,-0.99,-0.163,0.06
41806,1755604333744,81.47,-65.33,-29.93,788,887,858,432,902,33.333333333333336,-0.992,-0.164,0.058
41836,1755604333774,81.41,-65.34,-29.89,785,893,857,362,914,33.333333333333336,-0.99,-0.161,0.055
41865,1755604333803,81.32,-65.39,-29.89,786,889,859,321,904,34.48275862068966,-0.986,-0.161,0.053
41895,1755604333833,81.22,-65.47,-29.9,785,894,863,353,904,33.333333333333336,-0.99,-0.162,0.048
41925,1755604333863,81.14,-65.65,-29.88,790,892,861,422,903,33.333333333333336,-0.992,-0.164,0.045
41954,1755604333892,81.18,-65.89,-29.86,788,901,858,412,894,34.48275862068966,-0.993,-0.168,0.046
41984,1755604333922,81.21,-66.14,-29.82,784,886,865,325,915,33.333333333333336,-0.993,-0.165,0.047
42014,1755604333952,81.19,-66.37,-29.78,785,887,858,330,911,33.333333333333336,-0.988,-0.159,0.051
42043,1755604333981,81.16,-66.48,-29.81,782,896,851,405,900,34.48275862068966,-0.986,-0.155,0.056
42073,1755604334011,81.07,-66.52,-29.81,786,894,848,417,904,33.333333333333336,-0.992,-0.154,0.062
42102,1755604334040,81.08,-66.49,-29.82,786,892,855,355,914,34.48275862068966,-0.993,-0.156,0.066
42132,1755604334070,81.14,-66.43,-29.8,784,891,852,321,894,33.333333333333336,-0.993,-0.156,0.066
42162,1755604334099,81.15,-66.43,-29.78,782,911,851,349,902,33.333333333333336,-0.991,-0.156,0.064
42191,1755604334129,81.13,-66.43,-29.76,790,899,852,414,899,34.48275862068966,-0.992,-0.156,0.062
42221,1755604334159,81.14,-66.46,-29.74,785,902,849,395,907,33.333333333333336,-0.991,-0.154,0.059
42241,1755604334179,81.19,-66.51,-29.75,787,890,851,377,909,50.0,-0.99,-0.151,0.056
42261,1755604334200,81.2,-66.56,-29.77,784,893,855,328,903,50.0,-0.989,-0.148,0.055
42281,1755604334219,81.17,-66.62,-29.79,784,889,871,335,898,50.0,-0.988,-0.147,0.056
42311,1755604334249,81.12,-66.69,-29.82,777,898,845,378,903,33.333333333333336,-0.988,-0.149,0.057
42341,1755604334279,81.11,-66.78,-29.85,790,890,853,436,914,33.333333333333336,-0.989,-0.153,0.058
42370,1755604334308,81.11,-66.86,-29.87,782,897,857,414,907,34.48275862068966,-0.991,-0.155,0.058
42400,1755604334338,81.08,-66.91,-29.87,781,897,859,331,908,33.333333333333336,-0.994,-0.156,0.057
42429,1755604334367,81.09,-67.01,-29.87,787,898,854,344,896,34.48275862068966,-0.992,-0.155,0.056
42488,1755604334427,81.02,-67.14,-29.91,789,893,855,408,902,34.48275862068966,-0.989,-0.156,0.055
42518,1755604334456,80.9,-67.22,-29.9,776,890,856,364,901,33.333333333333336,-0.99,-0.158,0.055
42548,1755604334486,80.87,-67.32,-29.89,789,888,855,295,894,33.333333333333336,-0.994,-0.159,0.055
42577,1755604334515,80.87,-67.43,-29.87,781,887,853,372,906,34.48275862068966,-0.994,-0.158,0.057
42607,1755604334545,80.85,-67.44,-29.84,789,896,862,414,906,33.333333333333336,-0.992,-0.158,0.062
42637,1755604334574,80.91,-67.44,-29.84,786,894,857,342,905,33.333333333333336,-0.991,-0.153,0.065
42666,1755604334604,80.91,-67.38,-29.85,788,898,849,311,910,34.48275862068966,-0.988,-0.148,0.065
42696,1755604334634,80.91,-67.34,-29.9,786,885,856,335,904,33.333333333333336,-0.987,-0.15,0.067
42725,1755604334663,80.95,-67.34,-29.96,787,894,855,416,908,34.48275862068966,-0.987,-0.153,0.066
42755,1755604334693,81.08,-67.32,-30.02,792,884,855,412,902,33.333333333333336,-0.992,-0.157,0.064
42784,1755604334722,81.15,-67.39,-30.04,782,890,843,330,903,34.48275862068966,-0.992,-0.157,0.061
42814,1755604334752,81.23,-67.41,-30.07,782,899,860,341,899,33.333333333333336,-0.991,-0.152,0.059
42844,1755604334782,81.16,-67.45,-30.12,789,892,858,400,901,33.333333333333336,-0.986,-0.15,0.058
42873,1755604334811,81.09,-67.46,-30.2,785,889,856,415,900,34.48275862068966,-0.986,-0.153,0.058
42903,1755604334841,81.0,-67.52,-30.26,787,898,854,379,910,33.333333333333336,-0.989,-0.156,0.056
42932,1755604334870,80.95,-67.55,-30.29,781,890,860,331,908,34.48275862068966,-0.995,-0.161,0.056
42962,1755604334900,80.93,-67.69,-30.26,785,890,853,349,905,33.333333333333336,-0.997,-0.166,0.057
42991,1755604334929,80.96,-67.71,-30.21,783,883,853,435,905,34.48275862068966,-0.996,-0.167,0.059
43021,1755604334959,80.97,-67.75,-30.17,783,900,851,374,905,33.333333333333336,-0.993,-0.162,0.059
43050,1755604334988,81.01,-67.75,-30.17,787,897,852,316,899,34.48275862068966,-0.99,-0.158,0.061
43080,1755604335018,81.0,-67.74,-30.18,787,893,865,329,907,33.333333333333336,-0.988,-0.154,0.06
43109,1755604335047,80.99,-67.75,-30.22,787,894,855,419,901,34.48275862068966,-0.99,-0.154,0.061
43139,1755604335076,80.94,-67.76,-30.24,782,890,852,420,896,33.333333333333336,-0.99,-0.155,0.061
43168,1755604335106,80.93,-67.77,-30.25,790,897,863,349,901,34.48275862068966,-0.991,-0.156,0.061
43198,1755604335136,80.9,-67.8,-30.26,786,903,856,319,907,33.333333333333336,-0.991,-0.158,0.06
43218,1755604335156,80.87,-67.82,-30.25,785,890,862,385,903,50.0,-0.992,-0.159,0.06
43247,1755604335185,80.77,-67.83,-30.24,785,896,858,339,906,34.48275862068966,-0.991,-0.155,0.06
43277,1755604335215,80.72,-67.86,-30.3,782,891,853,389,904,33.333333333333336,-0.986,-0.15,0.063
43307,1755604335245,80.77,-67.9,-30.45,782,891,857,439,901,33.333333333333336,-0.981,-0.147,0.068
43337,1755604335275,80.77,-67.83,-30.62,783,885,865,404,910,33.333333333333336,-0.978,-0.153,0.072
43366,1755604335304,80.79,-67.7,-30.73,788,892,859,340,906,34.48275862068966,-0.983,-0.162,0.071
43396,1755604335334,80.86,-67.66,-30.78,786,898,857,312,911,33.333333333333336,-0.992,-0.168,0.066
43425,1755604335364,80.93,-67.65,-30.77,780,890,850,401,905,34.48275862068966,-0.998,-0.172,0.061
43455,1755604335393,81.02,-67.68,-30.71,783,894,853,417,902,33.333333333333336,-1.001,-0.173,0.055
43485,1755604335423,81.08,-67.8,-30.64,783,886,851,350,902,33.333333333333336,-0.995,-0.172,0.054
43514,1755604335452,81.09,-67.89,-30.57,786,896,843,324,903,34.48275862068966,-0.99,-0.168,0.055
43544,1755604335482,81.03,-68.01,-30.54,792,897,857,372,903,33.333333333333336,-0.989,-0.162,0.055
43573,1755604335511,81.01,-68.05,-30.53,776,886,856,443,898,34.48275862068966,-0.991,-0.157,0.057
43603,1755604335541,80.94,-68.07,-30.53,783,896,852,411,895,33.333333333333336,-0.989,-0.154,0.061
43632,1755604335571,80.91,-68.04,-30.56,781,893,862,332,921,34.48275862068966,-0.986,-0.155,0.064
43662,1755604335600,80.87,-68.01,-30.62,785,884,854,352,906,33.333333333333336,-0.985,-0.156,0.064
43692,1755604335630,80.8,-67.98,-30.65,780,886,853,416,912,33.333333333333336,-0.988,-0.158,0.064
43721,1755604335659,80.79,-67.98,-30.66,782,895,849,413,898,34.48275862068966,-0.989,-0.163,0.063
43751,1755604335689,80.85,-68.01,-30.66,782,897,854,342,904,33.333333333333336,-0.994,-0.164,0.062
43780,1755604335718,80.86,-68.03,-30.65,785,895,855,336,906,34.48275862068966,-0.992,-0.163,0.061
43810,1755604335748,80.85,-68.04,-30.65,781,893,857,398,906,33.333333333333336,-0.987,-0.162,0.059
43840,1755604335778,80.82,-68.07,-30.67,787,890,851,428,902,33.333333333333336,-0.987,-0.162,0.059
43869,1755604335807,80.77,-68.11,-30.7,785,897,860,396,906,34.48275862068966,-0.987,-0.162,0.06
43899,1755604335837,80.75,-68.1,-30.7,784,896,840,318,902,33.333333333333336,-0.991,-0.162,0.061
43929,1755604335867,80.71,-68.11,-30.69,785,895,857,342,907,33.333333333333336,-0.991,-0.161,0.064
43959,1755604335896,80.7,-68.06,-30.69,787,890,849,421,900,33.333333333333336,-0.988,-0.161,0.065
43988,1755604335926,80.68,-68.0,-30.69,783,895,850,419,900,34.48275862068966,-0.988,-0.161,0.066
44017,1755604335956,80.7,-67.97,-30.71,782,900,858,336,901,34.48275862068966,-0.987,-0.16,0.065
44077,1755604336015,80.67,-67.91,-30.76,783,891,854,367,906,33.333333333333336,-0.987,-0.158,0.065
44106,1755604336044,80.68,-67.88,-30.79,785,897,853,402,903,34.48275862068966,-0.988,-0.159,0.064
44136,1755604336074,80.68,-67.85,-30.81,788,897,852,393,894,33.333333333333336,-0.991,-0.16,0.064
44166,1755604336104,80.68,-67.85,-30.82,784,894,851,335,913,33.333333333333336,-0.992,-0.162,0.064
44195,1755604336133,80.69,-67.83,-30.81,787,897,859,338,902,34.48275862068966,-0.99,-0.163,0.064
44225,1755604336163,80.69,-67.8,-30.81,785,895,858,417,900,33.333333333333336,-0.989,-0.161,0.065
44254,1755604336192,80.66,-67.79,-30.83,782,889,853,414,897,34.48275862068966,-0.988,-0.159,0.065
44284,1755604336222,80.66,-67.75,-30.85,786,894,853,348,902,33.333333333333336,-0.988,-0.16,0.065
44313,1755604336252,80.8,-67.78,-30.91,786,898,848,339,910,34.48275862068966,-0.99,-0.162,0.064
44343,1755604336281,80.86,-67.81,-30.92,787,895,855,386,899,33.333333333333336,-0.99,-0.162,0.063
44373,1755604336311,80.83,-67.85,-30.92,787,897,850,423,908,33.333333333333336,-0.99,-0.162,0.06
44403,1755604336341,80.76,-67.95,-30.91,785,884,857,381,899,33.333333333333336,-0.991,-0.161,0.058
44432,1755604336370,80.61,-68.01,-30.89,785,895,850,343,911,34.48275862068966,-0.989,-0.16,0.057
44461,1755604336400,80.51,-68.08,-30.9,784,897,851,357,903,34.48275862068966,-0.989,-0.162,0.059
44491,1755604336429,80.41,-68.13,-30.9,788,898,851,423,898,33.333333333333336,-0.989,-0.163,0.063
44521,1755604336460,80.35,-68.1,-30.89,785,893,855,374,898,33.333333333333336,-0.99,-0.164,0.068
44541,1755604336479,80.34,-68.04,-30.89,785,898,853,359,906,50.0,-0.99,-0.163,0.072
44571,1755604336510,80.37,-67.93,-30.88,789,889,848,387,919,33.333333333333336,-0.989,-0.161,0.073
44591,1755604336529,80.41,-67.85,-30.87,782,887,849,368,905,50.0,-0.987,-0.16,0.073
44621,1755604336559,80.43,-67.79,-30.9,794,892,852,375,907,33.333333333333336,-0.984,-0.159,0.07
44651,1755604336589,80.46,-67.78,-30.95,786,887,848,332,913,33.333333333333336,-0.985,-0.158,0.068
44680,1755604336618,80.42,-67.79,-31.0,789,898,854,326,901,34.48275862068966,-0.986,-0.158,0.066
44710,1755604336648,80.44,-67.82,-31.06,779,889,847,380,916,33.333333333333336,-0.987,-0.16,0.066
44739,1755604336677,80.44,-67.82,-31.11,781,890,841,410,907,34.48275862068966,-0.988,-0.161,0.068
44769,1755604336707,80.42,-67.82,-31.14,784,891,868,394,903,33.333333333333336,-0.99,-0.162,0.069
44798,1755604336736,80.39,-67.81,-31.15,786,888,853,321,905,34.48275862068966,-0.989,-0.163,0.069
44828,1755604336766,80.45,-67.79,-31.19,785,889,848,347,906,33.333333333333336,-0.99,-0.164,0.07
44858,1755604336796,80.44,-67.75,-31.19,788,907,860,404,905,33.333333333333336,-0.99,-0.164,0.07
44887,1755604336825,80.46,-67.7,-31.2,786,896,860,414,908,34.48275862068966,-0.99,-0.164,0.069
44917,1755604336856,80.48,-67.71,-31.22,789,896,856,359,902,33.333333333333336,-0.989,-0.163,0.069
44937,1755604336876,80.49,-67.66,-31.23,789,888,848,426,903,50.0,-0.988,-0.162,0.069
44958,1755604336896,80.49,-67.63,-31.25,785,882,848,378,915,47.61904761904762,-0.986,-0.16,0.069
44978,1755604336916,80.48,-67.6,-31.29,785,882,849,326,911,50.0,-0.985,-0.159,0.068
45007,1755604336946,80.44,-67.56,-31.34,781,890,849,416,903,34.48275862068966,-0.988,-0.161,0.069
45037,1755604336975,80.87,-67.51,-31.36,787,893,860,391,903,33.333333333333336,-0.991,-0.164,0.069
45067,1755604337005,80.9,-67.48,-31.36,780,888,861,341,903,33.333333333333336,-0.992,-0.167,0.069
45097,1755604337035,80.92,-67.45,-31.35,781,892,846,324,903,33.333333333333336,-0.99,-0.169,0.066
45126,1755604337065,80.99,-67.52,-31.35,777,899,845,348,904,34.48275862068966,-0.989,-0.169,0.063
45156,1755604337095,80.98,-67.57,-31.34,785,887,854,398,903,33.333333333333336,-0.99,-0.166,0.061
45186,1755604337124,80.96,-67.64,-31.35,782,888,849,375,908,33.333333333333336,-0.987,-0.162,0.06
45216,1755604337154,80.91,-67.69,-31.4,787,887,852,286,912,33.333333333333336,-0.985,-0.161,0.062
45245,1755604337183,80.9,-67.73,-31.44,787,902,849,326,900,34.48275862068966,-0.987,-0.164,0.064
45275,1755604337213,80.84,-67.77,-31.45,781,899,838,373,894,33.333333333333336,-0.989,-0.166,0.065
45304,1755604337242,80.81,-67.81,-31.43,782,890,855,399,900,34.48275862068966,-0.991,-0.168,0.064
45334,1755604337272,80.8,-67.85,-31.39,791,890,850,351,893,33.333333333333336,-0.991,-0.169,0.064
45363,1755604337301,80.82,-67.85,-31.36,780,888,846,341,901,34.48275862068966,-0.992,-0.168,0.064
45393,1755604337331,80.77,-67.92,-31.33,786,885,852,390,903,33.333333333333336,-0.988,-0.167,0.063
45452,1755604337390,80.73,-67.98,-31.36,787,894,860,371,911,33.333333333333336,-0.988,-0.162,0.063
45482,1755604337420,80.65,-68.06,-31.38,787,893,847,315,906,33.333333333333336,-0.988,-0.162,0.063
45502,1755604337440,80.58,-68.08,-31.4,785,894,860,416,904,50.0,-0.99,-0.162,0.065
45531,1755604337470,80.59,-68.14,-31.42,779,891,846,345,899,34.48275862068966,-0.99,-0.165,0.069
45561,1755604337500,80.55,-68.22,-31.42,781,889,857,366,905,33.333333333333336,-0.989,-0.167,0.069
45582,1755604337520,80.57,-68.27,-31.43,782,887,853,367,913,47.61904761904762,-0.989,-0.167,0.067
45602,1755604337540,80.56,-68.27,-31.41,785,893,852,422,900,50.0,-0.991,-0.167,0.065
45632,1755604337570,80.5,-68.3,-31.39,780,894,848,368,899,33.333333333333336,-0.989,-0.167,0.066
45661,1755604337599,80.43,-68.27,-31.37,782,888,865,385,905,34.48275862068966,-0.989,-0.165,0.067
45691,1755604337629,80.33,-68.22,-31.37,787,891,855,453,907,33.333333333333336,-0.988,-0.163,0.066
45720,1755604337658,80.22,-68.2,-31.37,779,882,851,434,900,34.48275862068966,-0.987,-0.163,0.069
45750,1755604337688,80.16,-68.18,-31.38,781,891,847,332,902,33.333333333333336,-0.989,-0.164,0.07
45779,1755604337717,80.13,-68.13,-31.37,788,895,858,333,911,34.48275862068966,-0.992,-0.164,0.071
45809,1755604337747,80.14,-68.06,-31.36,786,894,855,414,903,33.333333333333336,-0.99,-0.162,0.072
