timestamp_ms,recv_timestamp_ms,pitch,roll,yaw,flex1,flex2,flex3,flex4,flex5,sampling_hz,accel_x,accel_y,accel_z
28329,1755604320698,81.55,-67.72,-24.59,789,895,852,418,910,34.48275862068966,-0.991,-0.142,0.06
28359,1755604320700,81.52,-67.72,-24.62,790,902,861,420,908,33.333333333333336,-0.991,-0.143,0.06
28388,1755604320702,81.51,-67.71,-24.65,786,902,859,338,903,34.48275862068966,-0.991,-0.144,0.06
28418,1755604320704,81.54,-67.72,-24.69,792,900,862,350,908,33.333333333333336,-0.993,-0.145,0.06
28448,1755604320705,81.53,-67.71,-24.7,784,889,859,405,914,33.333333333333336,-0.995,-0.146,0.06
28477,1755604320708,81.52,-67.71,-24.69,787,895,857,415,912,34.48275862068966,-0.994,-0.146,0.061
28507,1755604320710,81.54,-67.7,-24.71,788,896,868,371,906,33.333333333333336,-0.994,-0.145,0.061
28537,1755604320712,81.54,-67.68,-24.71,782,895,869,327,909,33.333333333333336,-0.993,-0.146,0.062
28567,1755604320714,81.57,-67.62,-24.74,787,892,855,346,913,33.333333333333336,-0.991,-0.145,0.061
28596,1755604320716,81.55,-67.63,-24.76,788,901,859,409,907,34.48275862068966,-0.991,-0.146,0.06
28655,1755604320720,81.58,-67.65,-24.76,786,893,865,303,910,34.48275862068966,-0.993,-0.145,0.059
28685,1755604320722,81.56,-67.64,-24.76,790,900,857,304,904,33.333333333333336,-0.993,-0.144,0.059
28715,1755604320725,81.54,-67.62,-24.77,786,896,852,371,912,33.333333333333336,-0.99,-0.144,0.06
28744,1755604320726,81.53,-67.61,-24.8,788,896,862,416,914,34.48275862068966,-0.99,-0.143,0.061
28774,1755604320729,81.52,-67.6,-24.81,784,888,849,369,908,33.333333333333336,-0.993,-0.145,0.061
28803,1755604320741,81.54,-67.58,-24.81,788,893,858,325,905,34.48275862068966,-0.994,-0.146,0.06
28833,1755604320770,81.56,-67.57,-24.81,779,899,863,340,905,33.333333333333336,-0.993,-0.144,0.06
28862,1755604320800,81.57,-67.53,-24.82,791,898,861,411,913,34.48275862068966,-0.99,-0.144,0.061
28892,1755604320830,81.55,-67.51,-24.85,786,897,857,406,914,33.333333333333336,-0.989,-0.144,0.061
28921,1755604320859,81.55,-67.49,-24.88,784,902,863,341,908,34.48275862068966,-0.99,-0.144,0.06
28951,1755604320889,81.52,-67.49,-24.9,789,896,849,340,916,33.333333333333336,-0.992,-0.145,0.06
29010,1755604320948,81.52,-67.47,-24.9,786,890,855,427,906,33.333333333333336,-0.991,-0.146,0.061
29039,1755604320978,81.53,-67.46,-24.94,784,902,859,364,910,34.48275862068966,-0.99,-0.144,0.06
29060,1755604320997,81.53,-67.45,-24.96,790,898,841,421,910,47.61904761904762,-0.99,-0.144,0.06
29089,1755604321027,81.53,-67.44,-24.98,788,898,849,350,901,34.48275862068966,-0.993,-0.145,0.061
29118,1755604321057,81.51,-67.44,-24.99,789,895,859,291,910,34.48275862068966,-0.992,-0.145,0.061
29148,1755604321086,81.51,-67.41,-25.01,787,897,856,363,914,33.333333333333336,-0.992,-0.145,0.061
29178,1755604321116,81.5,-67.41,-25.03,786,898,852,415,905,33.333333333333336,-0.991,-0.146,0.061
29207,1755604321145,81.51,-67.38,-25.05,792,894,861,391,907,34.48275862068966,-0.991,-0.147,0.061
29237,1755604321175,81.52,-67.38,-25.07,783,895,859,329,910,33.333333333333336,-0.994,-0.147,0.061
29267,1755604321205,81.52,-67.38,-25.07,785,898,860,331,910,33.333333333333336,-0.992,-0.147,0.061
29297,1755604321234,81.53,-67.34,-25.07,783,902,858,407,894,33.333333333333336,-0.993,-0.147,0.061
29326,1755604321264,81.51,-67.34,-25.08,788,892,851,421,899,34.48275862068966,-0.992,-0.146,0.06
29356,1755604321294,81.5,-67.31,-25.07,782,891,864,356,904,33.333333333333336,-0.992,-0.146,0.061
29385,1755604321323,81.51,-67.3,-25.08,788,892,856,326,906,34.48275862068966,-0.992,-0.147,0.061
29415,1755604321353,81.51,-67.26,-25.08,786,894,854,371,918,33.333333333333336,-0.99,-0.146,0.06
29444,1755604321383,81.54,-67.27,-25.11,787,895,857,371,919,34.48275862068966,-0.99,-0.146,0.058
29474,1755604321412,81.52,-67.3,-25.11,785,902,855,368,910,33.333333333333336,-0.992,-0.147,0.058
29504,1755604321442,81.51,-67.34,-25.11,784,899,860,326,908,33.333333333333336,-0.993,-0.147,0.057
29533,1755604321471,81.48,-67.37,-25.1,787,903,851,343,910,34.48275862068966,-0.991,-0.146,0.057
29563,1755604321501,81.44,-67.37,-25.11,783,895,848,424,910,33.333333333333336,-0.99,-0.145,0.058
29592,1755604321530,81.36,-67.39,-25.13,785,890,860,417,911,34.48275862068966,-0.988,-0.143,0.059
29622,1755604321560,81.35,-67.38,-25.18,784,890,863,367,907,33.333333333333336,-0.989,-0.143,0.061
29651,1755604321589,81.31,-67.38,-25.2,781,902,857,342,909,34.48275862068966,-0.993,-0.145,0.063
29681,1755604321619,81.32,-67.32,-25.19,787,897,858,401,895,33.333333333333336,-0.995,-0.148,0.064
29710,1755604321648,81.32,-67.3,-25.16,782,890,846,383,907,34.48275862068966,-0.994,-0.148,0.064
29740,1755604321678,81.39,-67.28,-25.17,789,896,860,372,906,33.333333333333336,-0.992,-0.147,0.064
29769,1755604321707,81.38,-67.24,-25.16,785,900,859,314,910,34.48275862068966,-0.992,-0.146,0.062
29799,1755604321737,81.37,-67.22,-25.17,784,902,862,303,904,33.333333333333336,-0.992,-0.146,0.062
29829,1755604321767,81.39,-67.21,-25.17,786,894,856,396,909,33.333333333333336,-0.992,-0.146,0.062
29858,1755604321797,81.38,-67.17,-25.17,784,891,857,391,913,34.48275862068966,-0.992,-0.145,0.061
29888,1755604321826,81.39,-67.16,-25.17,787,892,857,331,902,33.333333333333336,-0.992,-0.145,0.062
29918,1755604321856,81.41,-67.15,-25.18,784,895,852,334,904,33.333333333333336,-0.992,-0.144,0.063
29947,1755604321885,81.42,-67.11,-25.19,786,903,857,372,903,34.48275862068966,-0.991,-0.144,0.063
29977,1755604321915,81.44,-67.08,-25.2,782,890,859,421,906,33.333333333333336,-0.992,-0.144,0.064
30006,1755604321944,81.42,-67.04,-25.2,789,898,864,365,906,34.48275862068966,-0.991,-0.144,0.064
30036,1755604321974,81.43,-67.01,-25.22,785,897,857,338,912,33.333333333333336,-0.992,-0.144,0.063
30066,1755604322004,81.44,-67.0,-25.24,786,896,851,362,909,33.333333333333336,-0.991,-0.144,0.063
30095,1755604322033,81.47,-66.99,-25.26,788,894,850,433,905,34.48275862068966,-0.992,-0.144,0.062
30125,1755604322063,81.48,-66.99,-25.27,788,901,858,372,909,33.333333333333336,-0.993,-0.144,0.061
30154,1755604322092,81.47,-66.99,-25.28,783,907,862,326,910,34.48275862068966,-0.991,-0.144,0.06
30184,1755604322122,81.46,-66.99,-25.29,789,896,866,330,908,33.333333333333336,-0.992,-0.145,0.06
30213,1755604322151,81.43,-67.0,-25.3,781,896,855,397,907,34.48275862068966,-0.993,-0.145,0.06
30243,1755604322181,81.4,-67.01,-25.31,784,892,849,402,910,33.333333333333336,-0.992,-0.145,0.061
30272,1755604322210,81.41,-67.0,-25.33,789,891,854,347,908,34.48275862068966,-0.992,-0.145,0.061
30302,1755604322240,81.39,-66.99,-25.35,793,897,853,329,911,33.333333333333336,-0.991,-0.145,0.062
30331,1755604322270,81.36,-66.96,-25.37,786,894,862,380,898,34.48275862068966,-0.991,-0.145,0.062
30361,1755604322299,81.38,-66.99,-25.4,784,899,857,421,907,33.333333333333336,-0.992,-0.147,0.061
30391,1755604322329,81.37,-66.98,-25.4,784,895,857,395,905,33.333333333333336,-0.994,-0.147,0.062
30421,1755604322359,81.36,-66.96,-25.4,791,901,855,335,909,33.333333333333336,-0.993,-0.147,0.062
30450,1755604322388,81.39,-66.97,-25.41,787,898,860,347,902,34.48275862068966,-0.992,-0.146,0.062
30480,1755604322418,81.4,-66.95,-25.42,789,902,870,413,908,33.333333333333336,-0.992,-0.146,0.063
30510,1755604322447,81.38,-66.94,-25.43,782,901,863,416,909,33.333333333333336,-0.991,-0.145,0.063
30539,1755604322477,81.38,-66.91,-25.45,789,898,848,359,904,34.48275862068966,-0.992,-0.146,0.062
30569,1755604322506,81.37,-66.91,-25.45,783,901,862,339,917,33.333333333333336,-0.993,-0.146,0.062
30598,1755604322536,81.39,-66.91,-25.47,789,893,851,387,894,34.48275862068966,-0.991,-0.146,0.062
30628,1755604322565,81.4,-66.88,-25.49,784,895,854,419,915,33.333333333333336,-0.991,-0.146,0.063
30657,1755604322595,81.42,-66.87,-25.5,781,893,859,398,904,34.48275862068966,-0.993,-0.146,0.064
30716,1755604322654,81.4,-66.82,-25.52,783,884,852,349,911,33.333333333333336,-0.991,-0.146,0.064
30746,1755604322683,81.41,-66.81,-25.54,789,897,854,422,914,33.333333333333336,-0.992,-0.146,0.063
30775,1755604322713,81.38,-66.79,-25.54,784,899,850,425,911,34.48275862068966,-0.992,-0.146,0.063
30805,1755604322743,81.4,-66.78,-25.56,780,885,859,348,918,33.333333333333336,-0.993,-0.147,0.062
30834,1755604322772,81.39,-66.79,-25.56,783,900,870,334,905,34.48275862068966,-0.992,-0.147,0.063
30864,1755604322802,81.4,-66.77,-25.57,792,898,855,401,904,33.333333333333336,-0.992,-0.146,0.062
30894,1755604322831,81.35,-66.76,-25.58,778,900,866,428,906,33.333333333333336,-0.991,-0.145,0.062
30923,1755604322861,81.3,-66.72,-25.58,786,901,850,389,903,34.48275862068966,-0.99,-0.145,0.062
30953,1755604322890,81.25,-66.71,-25.59,784,898,854,336,909,33.333333333333336,-0.991,-0.146,0.062
31012,1755604322949,81.22,-66.71,-25.6,783,901,849,418,910,33.333333333333336,-0.992,-0.146,0.062
31041,1755604322979,81.22,-66.69,-25.61,788,892,859,415,909,34.48275862068966,-0.992,-0.146,0.064
31100,1755604323038,81.22,-66.66,-25.61,792,890,870,330,911,34.48275862068966,-0.988,-0.146,0.066
31130,1755604323067,81.25,-66.63,-25.61,783,891,853,407,906,33.333333333333336,-0.989,-0.146,0.067
31159,1755604323097,81.28,-66.57,-25.6,789,890,855,416,909,34.48275862068966,-0.989,-0.146,0.066
31189,1755604323126,81.31,-66.54,-25.6,790,899,853,364,903,33.333333333333336,-0.989,-0.146,0.065
31218,1755604323156,81.3,-66.56,-25.6,787,897,857,336,905,34.48275862068966,-0.987,-0.145,0.064
31248,1755604323185,81.31,-66.52,-25.61,789,903,859,386,921,33.333333333333336,-0.99,-0.145,0.063
31277,1755604323215,81.27,-66.58,-25.62,788,898,863,413,909,34.48275862068966,-0.99,-0.144,0.062
31307,1755604323245,81.29,-66.57,-25.64,784,900,856,402,914,33.333333333333336,-0.989,-0.143,0.064
31336,1755604323274,81.26,-66.57,-25.65,781,897,857,330,907,34.48275862068966,-0.989,-0.144,0.065
31366,1755604323303,81.26,-66.57,-25.68,787,886,855,350,909,33.333333333333336,-0.99,-0.145,0.065
31395,1755604323333,81.25,-66.53,-25.67,790,891,856,389,906,34.48275862068966,-0.993,-0.147,0.066
31425,1755604323362,81.3,-66.55,-25.67,787,897,862,391,921,33.333333333333336,-0.994,-0.148,0.064
31454,1755604323392,81.33,-66.55,-25.64,789,887,867,300,909,34.48275862068966,-0.995,-0.148,0.064
31484,1755604323421,81.34,-66.58,-25.61,790,897,855,320,918,33.333333333333336,-0.993,-0.145,0.063
31513,1755604323451,81.34,-66.61,-25.62,788,899,848,394,907,34.48275862068966,-0.991,-0.143,0.062
31543,1755604323481,81.31,-66.63,-25.63,791,898,858,420,906,33.333333333333336,-0.99,-0.143,0.063
31572,1755604323510,81.3,-66.65,-25.67,788,895,859,374,902,34.48275862068966,-0.99,-0.142,0.065
31602,1755604323540,81.27,-66.61,-25.68,782,895,856,297,899,33.333333333333336,-0.991,-0.141,0.065
31631,1755604323569,81.24,-66.61,-25.71,784,900,851,354,903,34.48275862068966,-0.992,-0.143,0.067
31661,1755604323599,81.25,-66.58,-25.71,786,896,858,427,910,33.333333333333336,-0.993,-0.144,0.068
31690,1755604323628,81.27,-66.55,-25.72,790,892,843,412,903,34.48275862068966,-0.992,-0.144,0.067
31720,1755604323658,81.26,-66.52,-25.73,786,898,856,346,905,33.333333333333336,-0.991,-0.144,0.067
31740,1755604323678,81.26,-66.5,-25.75,779,890,854,436,903,50.0,-0.99,-0.143,0.066
31770,1755604323707,81.24,-66.46,-25.77,787,891,858,340,904,33.333333333333336,-0.99,-0.143,0.066
31799,1755604323737,81.25,-66.42,-25.8,785,899,850,349,913,34.48275862068966,-0.991,-0.143,0.067
31829,1755604323767,81.24,-66.35,-25.8,793,896,856,405,906,33.333333333333336,-0.992,-0.145,0.069
31858,1755604323796,81.26,-66.29,-25.81,787,900,864,426,911,34.48275862068966,-0.993,-0.145,0.068
31888,1755604323826,81.28,-66.24,-25.81,785,892,851,355,907,33.333333333333336,-0.993,-0.145,0.067
31918,1755604323855,81.3,-66.21,-25.8,791,891,855,335,903,33.333333333333336,-0.993,-0.145,0.065
31947,1755604323885,81.32,-66.2,-25.8,788,899,863,389,916,34.48275862068966,-0.994,-0.146,0.064
31977,1755604323914,81.3,-66.19,-25.78,788,903,859,414,909,33.333333333333336,-0.993,-0.145,0.063
32006,1755604323944,81.31,-66.19,-25.8,782,893,855,381,910,34.48275862068966,-0.992,-0.144,0.064
32036,1755604323973,81.26,-66.17,-25.8,784,896,853,321,911,33.333333333333336,-0.989,-0.142,0.064
32065,1755604324003,81.26,-66.16,-25.83,784,904,854,364,902,34.48275862068966,-0.99,-0.141,0.065
32095,1755604324032,81.22,-66.18,-25.87,787,898,855,425,910,33.333333333333336,-0.991,-0.142,0.067
32124,1755604324062,81.23,-66.12,-25.87,780,892,853,396,904,34.48275862068966,-0.994,-0.145,0.069
32154,1755604324092,81.25,-66.1,-25.87,784,888,854,344,905,33.333333333333336,-0.993,-0.146,0.068
32183,1755604324122,81.26,-66.03,-25.87,787,890,859,346,907,34.48275862068966,-0.993,-0.145,0.069
32213,1755604324152,81.27,-66.0,-25.87,786,896,862,401,912,33.333333333333336,-0.99,-0.145,0.067
32243,1755604324181,81.28,-65.94,-25.88,789,901,860,416,912,33.333333333333336,-0.991,-0.145,0.067
32273,1755604324211,81.28,-65.92,-25.9,786,893,844,398,910,33.333333333333336,-0.99,-0.145,0.067
32302,1755604324241,81.29,-65.88,-25.92,790,897,853,313,908,34.48275862068966,-0.992,-0.145,0.067
32332,1755604324270,81.3,-65.86,-25.93,783,899,852,331,912,33.333333333333336,-0.993,-0.144,0.066
32362,1755604324301,81.28,-65.81,-25.91,786,892,853,397,911,33.333333333333336,-0.993,-0.142,0.066
32382,1755604324320,81.25,-65.82,-25.91,781,895,859,335,908,50.0,-0.99,-0.142,0.064
32412,1755604324350,81.3,-65.8,-25.94,788,898,855,411,901,33.333333333333336,-0.991,-0.141,0.066
32441,1755604324379,81.29,-65.79,-25.99,785,894,850,419,907,34.48275862068966,-0.989,-0.14,0.067
32471,1755604324408,81.31,-65.73,-26.05,789,903,850,346,905,33.333333333333336,-0.989,-0.14,0.068
32500,1755604324438,81.3,-65.68,-26.08,787,899,861,347,905,34.48275862068966,-0.991,-0.142,0.069
32530,1755604324467,81.25,-65.63,-26.09,785,886,849,412,904,33.333333333333336,-0.994,-0.144,0.069
32559,1755604324497,81.25,-65.58,-26.1,786,898,855,432,903,34.48275862068966,-0.993,-0.146,0.069
32589,1755604324527,81.25,-65.53,-26.11,792,896,861,342,906,33.333333333333336,-0.991,-0.147,0.07
32618,1755604324556,81.29,-65.48,-26.13,783,896,850,328,902,34.48275862068966,-0.99,-0.148,0.068
32648,1755604324586,81.33,-65.44,-26.13,791,897,855,349,904,33.333333333333336,-0.993,-0.148,0.067
32677,1755604324615,81.35,-65.43,-26.13,784,893,859,409,910,34.48275862068966,-0.993,-0.147,0.066
32707,1755604324645,81.42,-65.42,-26.11,784,894,858,394,904,33.333333333333336,-0.995,-0.147,0.065
32737,1755604324675,81.44,-65.43,-26.11,793,901,860,327,898,33.333333333333336,-0.992,-0.146,0.064
32766,1755604324704,81.46,-65.44,-26.11,787,890,853,321,909,34.48275862068966,-0.99,-0.145,0.063
32796,1755604324734,81.45,-65.44,-26.13,787,896,858,384,914,33.333333333333336,-0.99,-0.143,0.062
32826,1755604324764,81.45,-65.47,-26.17,791,905,854,401,899,33.333333333333336,-0.992,-0.143,0.062
32856,1755604324794,81.42,-65.47,-26.17,785,903,843,361,909,33.333333333333336,-0.993,-0.144,0.064
32885,1755604324823,81.43,-65.47,-26.19,785,901,862,329,904,34.48275862068966,-0.993,-0.144,0.064
32915,1755604324852,81.45,-65.45,-26.2,784,892,861,345,913,33.333333333333336,-0.993,-0.144,0.065
32944,1755604324882,81.45,-65.44,-26.23,790,896,860,385,912,34.48275862068966,-0.991,-0.144,0.064
32973,1755604324912,81.42,-65.44,-26.24,794,894,854,377,901,34.48275862068966,-0.99,-0.145,0.064
33003,1755604324942,81.43,-65.46,-26.26,782,898,852,321,903,33.333333333333336,-0.992,-0.145,0.061
33023,1755604324961,81.42,-65.48,-26.26,781,898,863,412,903,50.0,-0.994,-0.145,0.061
33053,1755604324991,81.41,-65.53,-26.26,786,892,861,326,896,33.333333333333336,-0.994,-0.146,0.062
33082,1755604325020,81.41,-65.55,-26.26,787,898,865,349,908,34.48275862068966,-0.993,-0.146,0.063
33112,1755604325050,81.4,-65.57,-26.27,789,895,863,420,911,33.333333333333336,-0.992,-0.146,0.063
33141,1755604325079,81.41,-65.59,-26.28,790,900,850,420,906,34.48275862068966,-0.992,-0.145,0.063
33171,1755604325109,81.43,-65.6,-26.29,783,900,857,344,913,33.333333333333336,-0.994,-0.146,0.064
33201,1755604325139,81.43,-65.62,-26.28,784,892,856,324,897,33.333333333333336,-0.995,-0.146,0.063
33251,1755604325189,81.46,-65.71,-26.26,785,898,847,348,904,33.333333333333336,-0.993,-0.146,0.061
33280,1755604325218,81.49,-65.75,-26.25,785,887,854,398,911,34.48275862068966,-0.993,-0.146,0.061
33310,1755604325248,81.5,-65.79,-26.23,793,888,852,425,904,33.333333333333336,-0.992,-0.146,0.06
33340,1755604325278,81.52,-65.83,-26.21,779,902,859,392,897,33.333333333333336,-0.993,-0.144,0.059
33369,1755604325307,81.5,-65.9,-26.19,780,898,851,339,900,34.48275862068966,-0.993,-0.142,0.059
33399,1755604325337,81.47,-65.94,-26.18,790,898,853,347,916,33.333333333333336,-0.989,-0.14,0.06
33429,1755604325367,81.44,-65.96,-26.2,786,895,864,419,904,33.333333333333336,-0.988,-0.139,0.062
33458,1755604325396,81.41,-65.95,-26.24,782,890,859,406,904,34.48275862068966,-0.989,-0.139,0.064
33488,1755604325426,81.4,-65.95,-26.28,787,895,852,309,904,33.333333333333336,-0.991,-0.14,0.065
33508,1755604325446,81.4,-65.92,-26.3,785,895,864,396,905,50.0,-0.995,-0.142,0.067
33537,1755604325475,81.4,-65.91,-26.3,787,891,849,338,904,34.48275862068966,-0.995,-0.144,0.067
33567,1755604325505,81.44,-65.87,-26.29,783,896,858,332,911,33.333333333333336,-0.994,-0.145,0.066
33596,1755604325534,81.47,-65.85,-26.28,781,893,867,401,912,34.48275862068966,-0.992,-0.144,0.065
33626,1755604325564,81.47,-65.87,-26.29,781,909,859,432,909,33.333333333333336,-0.992,-0.144,0.063
33656,1755604325594,81.55,-65.92,-26.29,788,894,854,387,903,33.333333333333336,-0.993,-0.143,0.063
33685,1755604325623,81.59,-65.92,-26.27,790,893,848,328,907,34.48275862068966,-0.995,-0.142,0.065
33715,1755604325653,81.6,-65.9,-26.26,786,896,861,361,911,33.333333333333336,-0.992,-0.141,0.064
33744,1755604325682,81.66,-65.88,-26.26,780,893,846,436,914,34.48275862068966,-0.992,-0.14,0.063
33774,1755604325711,81.72,-65.91,-26.27,789,897,875,415,909,33.333333333333336,-0.994,-0.141,0.063
33803,1755604325741,81.72,-65.89,-26.31,783,891,846,339,909,34.48275862068966,-0.995,-0.141,0.061
33833,1755604325771,81.68,-65.88,-26.32,781,894,851,324,904,33.333333333333336,-0.992,-0.141,0.059
33862,1755604325801,81.71,-65.89,-26.34,783,894,855,410,898,34.48275862068966,-0.996,-0.141,0.058
33892,1755604325830,81.68,-65.94,-26.35,786,897,857,410,907,33.333333333333336,-0.996,-0.141,0.058
33922,1755604325860,81.66,-65.94,-26.38,788,895,852,372,900,33.333333333333336,-0.995,-0.142,0.058
33951,1755604325890,81.66,-65.98,-26.4,791,895,859,320,915,34.48275862068966,-0.994,-0.143,0.058
33981,1755604325919,81.63,-65.97,-26.41,783,894,848,309,913,33.333333333333336,-0.995,-0.143,0.06
34011,1755604325949,81.65,-66.01,-26.43,787,892,848,410,898,33.333333333333336,-0.998,-0.143,0.06
34041,1755604325979,81.63,-65.99,-26.42,788,891,859,405,897,33.333333333333336,-0.996,-0.142,0.061
34070,1755604326008,81.65,-65.96,-26.44,788,890,860,332,903,34.48275862068966,-0.993,-0.141,0.061
34100,1755604326038,81.65,-66.0,-26.44,789,897,857,321,916,33.333333333333336,-0.994,-0.142,0.061
34130,1755604326068,81.68,-65.98,-26.45,782,895,847,391,899,33.333333333333336,-0.996,-0.142,0.061
34160,1755604326098,81.65,-66.0,-26.44,791,883,861,427,900,33.333333333333336,-0.995,-0.142,0.061
34189,1755604326127,81.67,-65.99,-26.45,793,897,858,390,904,34.48275862068966,-0.992,-0.141,0.061
34219,1755604326157,81.65,-66.01,-26.46,790,896,852,324,900,33.333333333333336,-0.992,-0.139,0.061
34248,1755604326186,81.62,-66.04,-26.48,783,897,855,332,915,34.48275862068966,-0.993,-0.14,0.062
34278,1755604326216,81.63,-66.04,-26.48,789,890,849,422,903,33.333333333333336,-0.994,-0.14,0.062
34307,1755604326246,81.62,-66.01,-26.49,784,890,853,422,906,34.48275862068966,-0.994,-0.14,0.063
34337,1755604326275,81.62,-66.01,-26.5,787,898,861,344,908,33.333333333333336,-0.992,-0.141,0.062
34367,1755604326305,81.65,-66.01,-26.52,784,898,862,331,902,33.333333333333336,-0.992,-0.14,0.062
34396,1755604326334,81.62,-65.97,-26.53,789,888,853,406,913,34.48275862068966,-0.992,-0.139,0.063
34426,1755604326364,81.63,-65.96,-26.56,788,895,861,419,900,33.333333333333336,-0.993,-0.14,0.063
34455,1755604326393,81.63,-65.91,-26.56,782,889,856,378,904,34.48275862068966,-0.994,-0.142,0.063
34485,1755604326423,81.67,-65.87,-26.55,788,898,859,325,908,33.333333333333336,-0.995,-0.143,0.062
34515,1755604326453,81.71,-65.88,-26.55,790,891,852,338,912,33.333333333333336,-0.994,-0.143,0.06
34544,1755604326482,81.73,-65.89,-26.56,785,898,857,410,911,34.48275862068966,-0.992,-0.142,0.058
34574,1755604326512,81.71,-65.94,-26.57,789,890,848,400,905,33.333333333333336,-0.992,-0.141,0.056
34604,1755604326542,81.69,-66.0,-26.59,789,896,849,342,905,33.333333333333336,-0.993,-0.141,0.055
34633,1755604326571,81.64,-66.07,-26.58,786,894,850,346,902,34.48275862068966,-0.995,-0.141,0.056
34663,1755604326601,81.64,-66.11,-26.57,789,900,857,398,904,33.333333333333336,-0.994,-0.141,0.058
34692,1755604326630,81.64,-66.15,-26.58,790,898,851,425,903,34.48275862068966,-0.992,-0.14,0.059
34722,1755604326660,81.61,-66.16,-26.58,783,898,844,389,903,33.333333333333336,-0.992,-0.14,0.06
34752,1755604326690,81.58,-66.18,-26.59,788,890,857,343,905,33.333333333333336,-0.992,-0.139,0.059
34781,1755604326719,81.61,-66.21,-26.6,791,896,861,354,904,34.48275862068966,-0.995,-0.14,0.059
34810,1755604326748,81.58,-66.26,-26.57,788,894,859,419,908,34.48275862068966,-0.995,-0.141,0.059
34840,1755604326778,81.62,-66.27,-26.56,795,895,858,417,909,33.333333333333336,-0.994,-0.141,0.061
34870,1755604326808,81.64,-66.31,-26.57,788,892,858,346,911,33.333333333333336,-0.993,-0.14,0.061
34899,1755604326837,81.65,-66.31,-26.56,788,887,850,346,901,34.48275862068966,-0.993,-0.14,0.061
34929,1755604326867,81.68,-66.32,-26.56,778,887,867,398,906,33.333333333333336,-0.994,-0.139,0.06
34959,1755604326897,81.67,-66.32,-26.56,788,889,852,429,906,33.333333333333336,-0.995,-0.14,0.061
34988,1755604326926,81.67,-66.34,-26.55,786,892,853,378,910,34.48275862068966,-0.995,-0.14,0.059
35018,1755604326956,81.65,-66.36,-26.54,791,895,860,315,894,33.333333333333336,-0.994,-0.139,0.059
35047,1755604326985,81.57,-66.35,-26.54,786,897,863,307,906,34.48275862068966,-0.993,-0.139,0.06
35106,1755604327044,81.49,-66.28,-26.61,788,892,851,388,907,34.48275862068966,-0.99,-0.135,0.061
35136,1755604327074,81.46,-66.28,-26.65,782,906,865,341,902,33.333333333333336,-0.991,-0.135,0.064
35166,1755604327103,81.44,-66.25,-26.7,784,888,848,324,905,33.333333333333336,-0.991,-0.135,0.064
35195,1755604327133,81.47,-66.23,-26.72,792,896,854,407,911,34.48275862068966,-0.995,-0.137,0.065
35225,1755604327163,81.45,-66.19,-26.73,788,898,853,375,917,33.333333333333336,-0.994,-0.138,0.065
35254,1755604327192,81.5,-66.16,-26.74,788,889,869,344,913,34.48275862068966,-0.995,-0.14,0.065
35284,1755604327222,81.5,-66.16,-26.73,782,896,854,321,907,33.333333333333336,-0.994,-0.14,0.064
35333,1755604327272,81.55,-66.15,-26.71,784,894,861,333,902,34.48275862068966,-0.994,-0.138,0.063
35363,1755604327301,81.55,-66.13,-26.71,786,896,858,378,905,33.333333333333336,-0.992,-0.138,0.063
35393,1755604327331,81.55,-66.11,-26.74,781,891,861,424,896,33.333333333333336,-0.991,-0.138,0.063
35422,1755604327360,81.57,-66.1,-26.79,784,895,853,400,903,34.48275862068966,-0.99,-0.138,0.062
35452,1755604327390,81.54,-66.06,-26.8,788,894,853,320,907,33.333333333333336,-0.993,-0.138,0.063
35511,1755604327449,81.55,-66.04,-26.84,789,893,859,427,895,33.333333333333336,-0.995,-0.14,0.063
35540,1755604327478,81.55,-66.02,-26.84,795,894,861,416,911,34.48275862068966,-0.993,-0.141,0.063
35570,1755604327508,81.53,-66.0,-26.87,789,894,856,356,919,33.333333333333336,-0.992,-0.14,0.062
35599,1755604327537,81.54,-66.01,-26.9,781,895,854,346,909,34.48275862068966,-0.992,-0.139,0.062
35629,1755604327567,81.55,-65.98,-26.9,786,888,856,384,907,33.333333333333336,-0.993,-0.139,0.063
35659,1755604327596,81.55,-65.96,-26.89,790,901,857,421,911,33.333333333333336,-0.994,-0.14,0.063
35688,1755604327626,81.59,-65.96,-26.9,788,898,848,387,904,34.48275862068966,-0.994,-0.14,0.063
35718,1755604327655,81.64,-65.92,-26.9,787,887,852,331,915,33.333333333333336,-0.994,-0.139,0.064
35747,1755604327685,81.62,-65.89,-26.88,782,897,848,350,904,34.48275862068966,-0.994,-0.139,0.063
35777,1755604327715,81.65,-65.91,-26.9,787,895,853,436,905,33.333333333333336,-0.993,-0.139,0.062
35806,1755604327744,81.64,-65.88,-26.9,787,905,856,412,907,34.48275862068966,-0.994,-0.139,0.062
35836,1755604327774,81.63,-65.89,-26.9,782,895,854,343,906,33.333333333333336,-0.994,-0.14,0.063
35865,1755604327803,81.64,-65.87,-26.91,779,894,845,340,909,34.48275862068966,-0.994,-0.139,0.064
35895,1755604327833,81.62,-65.86,-26.92,787,899,854,424,905,33.333333333333336,-0.993,-0.139,0.064
35924,1755604327862,81.63,-65.82,-26.94,788,890,854,438,907,34.48275862068966,-0.993,-0.139,0.064
35954,1755604327892,81.61,-65.81,-26.95,782,900,857,360,896,33.333333333333336,-0.993,-0.138,0.063
35983,1755604327921,81.63,-65.78,-26.96,785,891,861,328,904,34.48275862068966,-0.994,-0.138,0.064
36013,1755604327951,81.6,-65.77,-26.96,785,893,859,365,894,33.333333333333336,-0.994,-0.139,0.065
36043,1755604327980,81.61,-65.74,-26.98,787,897,859,424,912,33.333333333333336,-0.993,-0.138,0.064
36102,1755604328040,81.58,-65.66,-27.01,782,896,856,347,902,33.333333333333336,-0.992,-0.138,0.065
36132,1755604328070,81.58,-65.62,-27.02,789,900,847,356,912,33.333333333333336,-0.992,-0.139,0.065
36161,1755604328099,81.6,-65.58,-27.03,791,887,853,427,903,34.48275862068966,-0.995,-0.14,0.065
36191,1755604328129,81.63,-65.58,-27.03,786,894,859,419,914,33.333333333333336,-0.994,-0.14,0.064
36221,1755604328159,81.68,-65.52,-27.02,784,894,857,318,896,33.333333333333336,-0.996,-0.138,0.065
36250,1755604328189,81.69,-65.52,-27.01,787,900,849,319,904,34.48275862068966,-0.992,-0.138,0.063
36280,1755604328218,81.73,-65.51,-27.02,788,903,860,366,909,33.333333333333336,-0.991,-0.138,0.063
36310,1755604328248,81.72,-65.52,-27.04,787,891,855,442,914,33.333333333333336,-0.991,-0.138,0.061
36369,1755604328307,81.72,-65.58,-27.05,788,889,862,321,910,34.48275862068966,-0.993,-0.139,0.061
36399,1755604328337,81.73,-65.58,-27.06,789,894,847,324,905,33.333333333333336,-0.993,-0.139,0.061
36428,1755604328366,81.71,-65.6,-27.07,782,902,857,368,904,34.48275862068966,-0.992,-0.139,0.06
36458,1755604328396,81.72,-65.64,-27.06,786,889,857,396,908,33.333333333333336,-0.993,-0.14,0.06
36488,1755604328425,81.71,-65.68,-27.06,781,894,863,351,894,33.333333333333336,-0.994,-0.139,0.06
36517,1755604328455,81.71,-65.69,-27.07,792,894,852,321,906,34.48275862068966,-0.994,-0.138,0.06
36547,1755604328485,81.68,-65.7,-27.08,783,900,856,357,905,33.333333333333336,-0.992,-0.137,0.061
36606,1755604328544,81.64,-65.7,-27.12,779,892,858,416,897,33.333333333333336,-0.993,-0.137,0.063
36635,1755604328573,81.64,-65.7,-27.13,780,891,863,332,906,34.48275862068966,-0.993,-0.138,0.063
36665,1755604328603,81.66,-65.66,-27.13,786,890,853,332,905,33.333333333333336,-0.994,-0.138,0.064
36694,1755604328632,81.64,-65.64,-27.13,784,899,852,414,914,34.48275862068966,-0.992,-0.137,0.064
36724,1755604328662,81.64,-65.61,-27.15,791,895,849,417,908,33.333333333333336,-0.991,-0.137,0.063
36753,1755604328691,81.66,-65.62,-27.18,787,899,862,354,914,34.48275862068966,-0.993,-0.137,0.063
36783,1755604328721,81.65,-65.58,-27.17,783,901,856,330,909,33.333333333333336,-0.995,-0.137,0.063
36813,1755604328751,81.65,-65.58,-27.16,785,902,859,377,911,33.333333333333336,-0.994,-0.138,0.063
36842,1755604328780,81.68,-65.56,-27.15,787,885,857,434,900,34.48275862068966,-0.995,-0.138,0.064
36872,1755604328810,81.68,-65.57,-27.14,781,893,855,400,897,33.333333333333336,-0.995,-0.137,0.063
36901,1755604328839,81.71,-65.58,-27.16,788,894,854,310,908,34.48275862068966,-0.994,-0.137,0.062
36931,1755604328869,81.73,-65.59,-27.16,781,901,857,334,905,33.333333333333336,-0.995,-0.138,0.062
36960,1755604328898,81.72,-65.61,-27.16,780,889,864,418,899,34.48275862068966,-0.994,-0.137,0.062
36990,1755604328928,81.68,-65.6,-27.17,785,889,855,406,902,33.333333333333336,-0.992,-0.137,0.062
37019,1755604328957,81.65,-65.6,-27.18,780,900,863,337,890,34.48275862068966,-0.993,-0.136,0.062
37049,1755604328987,81.63,-65.6,-27.19,789,891,854,326,904,33.333333333333336,-0.993,-0.136,0.064
37079,1755604329016,81.65,-65.57,-27.2,789,898,857,367,904,33.333333333333336,-0.995,-0.138,0.066
37108,1755604329046,81.66,-65.56,-27.2,786,896,854,425,909,34.48275862068966,-0.995,-0.139,0.066
