timestamp_ms,recv_timestamp_ms,pitch,roll,yaw,flex1,flex2,flex3,flex4,flex5,sampling_hz,accel_x,accel_y,accel_z
45838,1755604338215,80.11,-67.99,-31.37,791,899,851,418,899,34.48275862068966,-0.986,-0.161,0.073
45868,1755604338216,80.13,-67.93,-31.4,790,891,851,359,902,33.333333333333336,-0.986,-0.163,0.075
45898,1755604338219,80.12,-67.84,-31.4,785,882,857,345,904,33.333333333333336,-0.989,-0.164,0.075
45927,1755604338221,80.13,-67.75,-31.4,781,885,852,366,903,34.48275862068966,-0.99,-0.163,0.073
45957,1755604338223,80.15,-67.73,-31.41,787,895,864,427,905,33.333333333333336,-0.989,-0.162,0.072
45986,1755604338225,80.16,-67.68,-31.42,786,894,853,400,906,34.48275862068966,-0.987,-0.163,0.073
46016,1755604338227,80.18,-67.65,-31.44,787,886,859,324,901,33.333333333333336,-0.987,-0.162,0.072
46045,1755604338228,80.15,-67.61,-31.45,781,892,856,332,902,34.48275862068966,-0.988,-0.162,0.072
46075,1755604338230,80.12,-67.55,-31.45,783,902,845,414,900,33.333333333333336,-0.987,-0.163,0.073
46104,1755604338232,80.18,-67.51,-31.48,788,893,861,431,902,34.48275862068966,-0.989,-0.164,0.074
46134,1755604338235,80.2,-67.45,-31.5,786,892,844,363,905,33.333333333333336,-0.99,-0.164,0.074
46164,1755604338237,80.2,-67.37,-31.49,785,900,851,333,910,33.333333333333336,-0.99,-0.164,0.075
46193,1755604338239,80.25,-67.28,-31.49,779,885,849,367,894,34.48275862068966,-0.987,-0.161,0.075
46223,1755604338241,80.27,-67.21,-31.53,780,893,851,436,906,33.333333333333336,-0.985,-0.159,0.074
46252,1755604338242,80.28,-67.17,-31.59,780,896,851,390,896,34.48275862068966,-0.985,-0.158,0.071
46282,1755604338244,80.23,-67.12,-31.62,780,895,859,325,905,33.333333333333336,-0.987,-0.16,0.069
46311,1755604338249,80.2,-67.15,-31.66,784,891,847,331,901,34.48275862068966,-0.99,-0.163,0.068
46341,1755604338279,80.16,-67.18,-31.66,781,894,849,401,909,33.333333333333336,-0.99,-0.165,0.069
46370,1755604338309,80.17,-67.13,-31.66,782,903,851,403,903,34.48275862068966,-0.99,-0.165,0.071
46400,1755604338338,80.14,-67.1,-31.65,788,890,854,345,903,33.333333333333336,-0.991,-0.165,0.073
46430,1755604338368,80.12,-67.04,-31.63,784,892,855,326,917,33.333333333333336,-0.99,-0.167,0.074
46459,1755604338398,80.16,-66.99,-31.6,786,896,849,393,905,34.48275862068966,-0.99,-0.167,0.074
46489,1755604338427,80.18,-66.94,-31.58,788,899,853,381,899,33.333333333333336,-0.99,-0.166,0.073
46519,1755604338457,80.17,-66.91,-31.56,785,890,852,367,898,33.333333333333336,-0.989,-0.164,0.072
46548,1755604338487,80.19,-66.88,-31.55,785,893,851,311,892,34.48275862068966,-0.987,-0.162,0.072
46578,1755604338517,80.18,-66.86,-31.55,785,895,850,350,902,33.333333333333336,-0.986,-0.161,0.073
46608,1755604338546,80.18,-66.83,-31.55,783,900,865,417,898,33.333333333333336,-0.987,-0.16,0.073
46638,1755604338576,80.19,-66.81,-31.58,782,884,847,406,905,33.333333333333336,-0.987,-0.16,0.074
46668,1755604338606,80.17,-66.78,-31.58,788,886,854,354,904,33.333333333333336,-0.988,-0.159,0.074
46697,1755604338635,80.15,-66.76,-31.6,784,897,868,313,901,34.48275862068966,-0.988,-0.161,0.074
46727,1755604338665,80.16,-66.74,-31.61,786,894,861,369,904,33.333333333333336,-0.989,-0.162,0.074
46786,1755604338724,80.14,-66.68,-31.63,780,894,848,378,902,33.333333333333336,-0.987,-0.161,0.074
46815,1755604338754,80.12,-66.63,-31.64,789,894,854,332,905,34.48275862068966,-0.986,-0.16,0.074
46845,1755604338783,80.11,-66.57,-31.66,783,886,856,353,904,33.333333333333336,-0.986,-0.16,0.075
46874,1755604338812,80.09,-66.53,-31.67,776,895,855,420,906,34.48275862068966,-0.988,-0.161,0.075
46904,1755604338842,80.1,-66.51,-31.67,782,896,854,423,907,33.333333333333336,-0.99,-0.163,0.075
46933,1755604338871,80.12,-66.47,-31.66,785,899,848,334,907,34.48275862068966,-0.989,-0.162,0.075
46962,1755604338901,80.12,-66.44,-31.66,792,891,851,344,903,34.48275862068966,-0.989,-0.161,0.075
46992,1755604338930,80.11,-66.42,-31.66,786,894,854,396,911,33.333333333333336,-0.988,-0.16,0.075
47022,1755604338960,80.13,-66.37,-31.69,783,886,838,427,916,33.333333333333336,-0.988,-0.158,0.077
47051,1755604338990,80.12,-66.31,-31.7,784,895,844,394,906,34.48275862068966,-0.988,-0.159,0.078
47081,1755604339020,80.14,-66.24,-31.73,780,887,854,304,903,33.333333333333336,-0.988,-0.16,0.078
47111,1755604339050,80.16,-66.2,-31.74,784,891,844,328,911,33.333333333333336,-0.989,-0.162,0.077
47141,1755604339079,80.16,-66.15,-31.75,779,894,849,401,907,33.333333333333336,-0.989,-0.162,0.076
47170,1755604339109,80.18,-66.13,-31.75,784,887,852,390,907,34.48275862068966,-0.989,-0.162,0.074
47200,1755604339138,80.17,-66.12,-31.76,786,886,845,334,904,33.333333333333336,-0.989,-0.161,0.075
47230,1755604339168,80.16,-66.06,-31.77,781,890,849,333,904,33.333333333333336,-0.987,-0.16,0.076
47259,1755604339197,80.12,-66.02,-31.79,781,890,853,401,902,34.48275862068966,-0.986,-0.16,0.076
47289,1755604339227,80.11,-65.97,-31.81,784,893,846,444,908,33.333333333333336,-0.988,-0.161,0.076
47318,1755604339256,80.1,-65.95,-31.82,785,893,853,401,907,34.48275862068966,-0.989,-0.162,0.077
47378,1755604339316,80.12,-65.88,-31.84,789,896,852,352,910,33.333333333333336,-0.988,-0.161,0.077
47407,1755604339345,80.12,-65.83,-31.86,781,892,847,423,901,34.48275862068966,-0.987,-0.161,0.076
47437,1755604339375,80.12,-65.8,-31.87,789,891,857,426,908,33.333333333333336,-0.988,-0.161,0.076
47466,1755604339405,80.11,-65.79,-31.88,777,889,874,345,906,34.48275862068966,-0.989,-0.161,0.076
47496,1755604339434,80.09,-65.75,-31.88,785,896,850,326,903,33.333333333333336,-0.988,-0.162,0.077
47526,1755604339464,80.1,-65.72,-31.89,788,888,854,386,908,33.333333333333336,-0.989,-0.162,0.078
47555,1755604339493,80.11,-65.69,-31.9,784,888,846,427,908,34.48275862068966,-0.988,-0.162,0.078
47585,1755604339523,80.1,-65.63,-31.9,788,896,852,394,903,33.333333333333336,-0.988,-0.162,0.077
47614,1755604339552,80.1,-65.62,-31.92,783,892,849,338,905,34.48275862068966,-0.988,-0.162,0.077
47644,1755604339582,80.1,-65.58,-31.92,784,897,845,341,899,33.333333333333336,-0.989,-0.162,0.078
47674,1755604339612,80.07,-65.53,-31.92,787,898,852,429,904,33.333333333333336,-0.988,-0.161,0.079
47704,1755604339642,80.08,-65.49,-31.93,788,886,858,417,903,33.333333333333336,-0.988,-0.161,0.078
47733,1755604339672,80.09,-65.46,-31.93,793,891,860,332,908,34.48275862068966,-0.99,-0.161,0.078
47763,1755604339701,80.07,-65.42,-31.93,782,892,854,320,905,33.333333333333336,-0.989,-0.161,0.079
47793,1755604339731,80.1,-65.37,-31.94,781,892,851,374,901,33.333333333333336,-0.989,-0.161,0.079
47823,1755604339761,80.11,-65.33,-31.95,787,897,854,398,898,33.333333333333336,-0.988,-0.16,0.079
47852,1755604339791,80.09,-65.26,-31.96,782,892,844,387,910,34.48275862068966,-0.987,-0.159,0.079
47882,1755604339820,80.09,-65.21,-31.97,789,899,840,337,897,33.333333333333336,-0.988,-0.159,0.079
47912,1755604339850,80.07,-65.19,-31.97,785,894,842,301,904,33.333333333333336,-0.987,-0.158,0.079
47941,1755604339880,80.07,-65.13,-31.99,786,881,854,421,900,34.48275862068966,-0.988,-0.158,0.079
47971,1755604339909,80.07,-65.1,-32.0,782,905,864,422,907,33.333333333333336,-0.987,-0.159,0.079
48001,1755604339939,80.08,-65.06,-32.02,790,894,855,369,906,33.333333333333336,-0.987,-0.16,0.079
48030,1755604339968,80.06,-65.06,-32.03,781,895,852,320,907,34.48275862068966,-0.988,-0.161,0.079
48060,1755604339998,80.07,-65.02,-32.03,787,887,850,350,904,33.333333333333336,-0.988,-0.161,0.078
48090,1755604340028,80.07,-65.03,-32.04,787,888,850,429,901,33.333333333333336,-0.988,-0.16,0.078
48119,1755604340058,80.09,-64.99,-32.04,785,885,853,393,907,34.48275862068966,-0.988,-0.16,0.079
48139,1755604340077,80.07,-64.97,-32.04,781,888,857,396,914,50.0,-0.987,-0.16,0.079
48169,1755604340107,80.07,-64.95,-32.06,782,901,846,394,906,33.333333333333336,-0.987,-0.16,0.079
48198,1755604340136,80.08,-64.94,-32.07,786,895,852,332,913,34.48275862068966,-0.989,-0.161,0.08
48228,1755604340166,80.05,-64.92,-32.08,777,889,857,358,905,33.333333333333336,-0.99,-0.161,0.08
48257,1755604340195,80.04,-64.89,-32.08,790,889,843,416,904,34.48275862068966,-0.988,-0.16,0.079
48287,1755604340225,80.03,-64.84,-32.1,790,896,852,419,906,33.333333333333336,-0.986,-0.158,0.081
48376,1755604340314,80.05,-64.69,-32.15,780,891,851,389,908,33.333333333333336,-0.989,-0.161,0.079
48406,1755604340344,80.06,-64.69,-32.15,778,890,850,425,903,33.333333333333336,-0.989,-0.161,0.079
48426,1755604340364,80.06,-64.65,-32.15,783,896,870,368,903,50.0,-0.989,-0.159,0.08
48455,1755604340393,80.03,-64.61,-32.14,778,892,860,417,898,34.48275862068966,-0.988,-0.158,0.08
48485,1755604340423,80.04,-64.56,-32.15,788,888,865,375,905,33.333333333333336,-0.988,-0.159,0.081
48505,1755604340443,80.04,-64.52,-32.15,787,898,852,405,916,50.0,-0.989,-0.16,0.082
48534,1755604340472,80.05,-64.49,-32.14,793,896,858,362,909,34.48275862068966,-0.99,-0.16,0.081
48564,1755604340502,80.04,-64.48,-32.13,780,896,851,320,903,33.333333333333336,-0.988,-0.159,0.08
48593,1755604340531,80.07,-64.48,-32.13,783,892,848,345,902,34.48275862068966,-0.988,-0.159,0.079
48623,1755604340561,80.04,-64.49,-32.13,788,896,852,404,903,33.333333333333336,-0.988,-0.16,0.079
48652,1755604340590,80.07,-64.49,-32.14,786,907,852,383,914,34.48275862068966,-0.989,-0.16,0.079
48682,1755604340620,80.05,-64.53,-32.14,787,890,851,318,909,33.333333333333336,-0.988,-0.159,0.079
48711,1755604340650,80.05,-64.5,-32.14,789,900,868,340,906,34.48275862068966,-0.988,-0.159,0.08
48741,1755604340679,80.04,-64.49,-32.14,779,894,866,407,908,33.333333333333336,-0.989,-0.159,0.081
48771,1755604340708,80.05,-64.47,-32.13,787,881,857,403,905,33.333333333333336,-0.988,-0.159,0.08
48800,1755604340738,80.05,-64.46,-32.13,778,900,845,338,917,34.48275862068966,-0.989,-0.159,0.08
48830,1755604340768,80.06,-64.43,-32.12,790,894,849,338,892,33.333333333333336,-0.989,-0.158,0.08
48859,1755604340797,80.05,-64.38,-32.1,780,895,851,389,917,34.48275862068966,-0.988,-0.157,0.08
48889,1755604340827,80.07,-64.35,-32.11,779,888,851,427,900,33.333333333333336,-0.987,-0.157,0.08
48918,1755604340857,80.07,-64.33,-32.11,784,896,859,402,900,34.48275862068966,-0.988,-0.157,0.081
48948,1755604340886,80.07,-64.3,-32.12,781,902,849,337,907,33.333333333333336,-0.987,-0.157,0.079
48978,1755604340916,80.08,-64.28,-32.12,778,892,851,335,900,33.333333333333336,-0.988,-0.156,0.079
49007,1755604340945,80.07,-64.26,-32.12,777,892,854,415,910,34.48275862068966,-0.988,-0.156,0.08
49037,1755604340975,80.04,-64.24,-32.14,781,897,861,396,910,33.333333333333336,-0.987,-0.156,0.081
49067,1755604341005,80.04,-64.2,-32.16,784,899,855,341,899,33.333333333333336,-0.986,-0.156,0.081
49096,1755604341034,80.05,-64.18,-32.18,782,886,843,336,898,34.48275862068966,-0.989,-0.157,0.081
49126,1755604341064,80.04,-64.13,-32.17,788,896,848,367,904,33.333333333333336,-0.99,-0.157,0.082
49156,1755604341094,80.09,-64.12,-32.18,781,892,854,412,891,33.333333333333336,-0.989,-0.157,0.082
49185,1755604341123,80.08,-64.05,-32.18,787,894,852,398,899,34.48275862068966,-0.987,-0.156,0.082
49215,1755604341153,80.1,-63.99,-32.21,786,886,859,328,903,33.333333333333336,-0.987,-0.156,0.082
49244,1755604341182,80.08,-63.94,-32.23,789,883,856,334,900,34.48275862068966,-0.987,-0.156,0.082
49274,1755604341212,80.09,-63.88,-32.24,786,893,846,420,898,33.333333333333336,-0.987,-0.156,0.081
49304,1755604341241,80.09,-63.85,-32.26,785,895,855,377,898,33.333333333333336,-0.989,-0.157,0.082
49333,1755604341271,80.1,-63.79,-32.27,783,889,851,337,893,34.48275862068966,-0.99,-0.157,0.082
49363,1755604341301,80.11,-63.76,-32.28,783,894,854,342,904,33.333333333333336,-0.988,-0.157,0.082
49392,1755604341330,80.13,-63.71,-32.3,790,892,859,381,894,34.48275862068966,-0.987,-0.157,0.081
49422,1755604341360,80.14,-63.71,-32.32,781,891,850,426,892,33.333333333333336,-0.989,-0.157,0.081
49452,1755604341390,80.13,-63.68,-32.33,780,893,847,401,898,33.333333333333336,-0.989,-0.157,0.081
49481,1755604341419,80.16,-63.64,-32.34,776,885,848,324,911,34.48275862068966,-0.988,-0.156,0.08
49511,1755604341449,80.14,-63.63,-32.35,790,895,854,325,906,33.333333333333336,-0.988,-0.156,0.08
49541,1755604341478,80.17,-63.6,-32.38,782,889,846,415,900,33.333333333333336,-0.988,-0.156,0.08
49599,1755604341538,80.17,-63.56,-32.4,784,891,847,331,901,34.48275862068966,-0.988,-0.157,0.08
49629,1755604341567,80.17,-63.54,-32.42,782,885,858,328,900,33.333333333333336,-0.988,-0.158,0.081
49659,1755604341597,80.16,-63.54,-32.43,787,888,854,387,905,33.333333333333336,-0.989,-0.158,0.08
49688,1755604341626,80.15,-63.54,-32.44,787,898,858,433,907,34.48275862068966,-0.989,-0.158,0.08
49718,1755604341656,80.16,-63.49,-32.44,781,901,849,385,909,33.333333333333336,-0.99,-0.158,0.081
49747,1755604341685,80.15,-63.49,-32.45,785,893,846,340,894,34.48275862068966,-0.988,-0.157,0.081
49777,1755604341715,80.17,-63.44,-32.46,785,883,854,353,899,33.333333333333336,-0.989,-0.157,0.082
49806,1755604341745,80.16,-63.43,-32.47,785,887,856,432,904,34.48275862068966,-0.988,-0.157,0.082
49836,1755604341774,80.14,-63.4,-32.49,780,900,850,422,902,33.333333333333336,-0.989,-0.157,0.08
49866,1755604341804,80.06,-63.37,-32.48,786,882,850,322,906,33.333333333333336,-0.991,-0.158,0.081
49896,1755604341834,80.06,-63.37,-32.49,784,891,853,321,904,33.333333333333336,-0.99,-0.158,0.082
49925,1755604341863,80.09,-63.3,-32.5,786,896,855,388,916,34.48275862068966,-0.988,-0.156,0.084
49955,1755604341893,80.1,-63.25,-32.53,785,892,864,414,909,33.333333333333336,-0.986,-0.156,0.085
49985,1755604341923,80.08,-63.21,-32.56,782,892,860,391,900,33.333333333333336,-0.987,-0.157,0.084
50014,1755604341952,80.1,-63.14,-32.56,785,891,854,310,904,34.48275862068966,-0.988,-0.158,0.083
50044,1755604341982,80.13,-63.15,-32.57,788,884,852,333,904,33.333333333333336,-0.989,-0.159,0.083
50074,1755604342012,80.13,-63.14,-32.56,785,894,850,411,906,33.333333333333336,-0.988,-0.158,0.084
50094,1755604342032,80.13,-63.1,-32.56,791,888,855,340,918,50.0,-0.986,-0.157,0.085
50123,1755604342061,80.12,-63.04,-32.57,781,888,852,416,900,34.48275862068966,-0.987,-0.156,0.086
50153,1755604342091,80.11,-63.0,-32.59,786,896,848,406,893,33.333333333333336,-0.986,-0.156,0.085
50173,1755604342111,80.12,-62.96,-32.6,785,896,847,402,904,50.0,-0.986,-0.157,0.085
50202,1755604342141,80.14,-62.93,-32.62,785,891,859,397,899,34.48275862068966,-0.988,-0.157,0.085
50232,1755604342170,80.13,-62.9,-32.63,782,893,849,292,895,33.333333333333336,-0.988,-0.157,0.085
50262,1755604342200,80.13,-62.85,-32.64,781,893,859,308,905,33.333333333333336,-0.988,-0.157,0.085
50292,1755604342230,80.14,-62.81,-32.65,783,904,853,387,897,33.333333333333336,-0.989,-0.157,0.085
50321,1755604342260,80.14,-62.78,-32.66,782,885,853,403,899,34.48275862068966,-0.988,-0.157,0.084
50351,1755604342289,80.15,-62.73,-32.67,784,892,842,371,906,33.333333333333336,-0.988,-0.156,0.085
50381,1755604342319,80.15,-62.7,-32.69,785,893,851,328,906,33.333333333333336,-0.987,-0.156,0.085
50410,1755604342348,80.15,-62.66,-32.72,780,907,853,361,907,34.48275862068966,-0.987,-0.156,0.085
50440,1755604342378,80.15,-62.65,-32.73,786,887,849,422,893,33.333333333333336,-0.989,-0.158,0.084
50470,1755604342408,80.15,-62.62,-32.73,783,889,868,404,901,33.333333333333336,-0.989,-0.159,0.084
50499,1755604342438,80.17,-62.6,-32.74,780,891,862,329,904,34.48275862068966,-0.987,-0.158,0.083
50559,1755604342497,80.15,-62.59,-32.76,786,890,851,401,898,33.333333333333336,-0.989,-0.158,0.083
50588,1755604342526,80.15,-62.57,-32.77,786,900,852,435,895,34.48275862068966,-0.989,-0.158,0.083
50618,1755604342556,80.15,-62.55,-32.78,784,888,842,348,902,33.333333333333336,-0.988,-0.157,0.084
50677,1755604342615,80.15,-62.51,-32.81,785,885,854,358,905,33.333333333333336,-0.988,-0.157,0.083
50706,1755604342644,80.13,-62.5,-32.83,784,899,854,438,906,34.48275862068966,-0.987,-0.158,0.083
50765,1755604342703,80.14,-62.52,-32.87,785,889,848,351,907,34.48275862068966,-0.989,-0.16,0.083
50795,1755604342733,80.15,-62.52,-32.87,783,886,856,356,907,33.333333333333336,-0.99,-0.161,0.083
50824,1755604342763,80.16,-62.5,-32.85,785,896,861,418,907,34.48275862068966,-0.989,-0.16,0.084
50854,1755604342792,80.19,-62.47,-32.85,785,894,861,409,908,33.333333333333336,-0.988,-0.159,0.085
50884,1755604342822,80.17,-62.47,-32.86,785,898,853,369,906,33.333333333333336,-0.987,-0.159,0.084
50913,1755604342851,80.17,-62.43,-32.87,783,897,854,329,908,34.48275862068966,-0.989,-0.158,0.084
50943,1755604342881,80.13,-62.41,-32.88,783,884,856,376,902,33.333333333333336,-0.988,-0.158,0.083
50972,1755604342911,80.12,-62.36,-32.9,783,899,849,436,899,34.48275862068966,-0.986,-0.157,0.085
50993,1755604342931,80.09,-62.34,-32.91,787,891,861,347,911,47.61904761904762,-0.985,-0.156,0.085
51022,1755604342960,80.12,-62.32,-32.94,787,888,848,414,905,34.48275862068966,-0.988,-0.157,0.086
51052,1755604342990,80.11,-62.3,-32.94,786,891,851,403,918,33.333333333333336,-0.989,-0.158,0.086
51081,1755604343019,80.12,-62.27,-32.95,786,899,855,325,907,34.48275862068966,-0.989,-0.159,0.085
51111,1755604343049,80.11,-62.28,-32.95,778,900,848,349,907,33.333333333333336,-0.988,-0.159,0.085
51141,1755604343079,80.13,-62.25,-32.98,781,892,856,417,901,33.333333333333336,-0.988,-0.158,0.085
51170,1755604343109,80.11,-62.24,-32.98,785,889,853,422,903,34.48275862068966,-0.988,-0.159,0.085
51200,1755604343138,80.12,-62.23,-32.99,784,895,861,362,896,33.333333333333336,-0.989,-0.159,0.085
51230,1755604343168,80.1,-62.21,-32.99,783,895,854,344,895,33.333333333333336,-0.988,-0.158,0.086
51259,1755604343197,80.12,-62.19,-33.02,783,885,852,371,902,34.48275862068966,-0.986,-0.158,0.085
51289,1755604343227,80.11,-62.19,-33.04,781,898,855,426,910,33.333333333333336,-0.987,-0.158,0.086
51318,1755604343257,80.12,-62.16,-33.06,785,887,850,403,895,34.48275862068966,-0.988,-0.159,0.086
51338,1755604343276,80.11,-62.15,-33.07,780,895,845,397,903,50.0,-0.989,-0.159,0.086
51368,1755604343306,80.12,-62.13,-33.07,780,888,853,366,899,33.333333333333336,-0.989,-0.159,0.086
51397,1755604343335,80.12,-62.12,-33.08,788,891,848,319,917,34.48275862068966,-0.989,-0.159,0.085
51427,1755604343365,80.1,-62.08,-33.09,786,887,854,351,899,33.333333333333336,-0.988,-0.158,0.086
51456,1755604343394,80.09,-62.04,-33.1,785,889,856,429,890,34.48275862068966,-0.988,-0.158,0.087
51515,1755604343453,80.09,-61.96,-33.11,781,894,855,347,922,34.48275862068966,-0.988,-0.16,0.088
51545,1755604343483,80.08,-61.94,-33.12,780,895,847,326,895,33.333333333333336,-0.989,-0.16,0.086
51575,1755604343514,80.05,-61.94,-33.11,787,893,850,408,900,33.333333333333336,-0.988,-0.161,0.085
51595,1755604343533,80.04,-61.93,-33.11,782,892,852,327,897,50.0,-0.988,-0.161,0.085
51625,1755604343563,80.05,-61.91,-33.1,785,894,849,401,904,33.333333333333336,-0.989,-0.159,0.086
51654,1755604343592,80.05,-61.89,-33.11,785,894,854,411,905,34.48275862068966,-0.987,-0.158,0.088
51684,1755604343622,80.06,-61.85,-33.12,784,895,844,374,913,33.333333333333336,-0.986,-0.159,0.088
51713,1755604343652,80.05,-61.84,-33.13,779,890,850,331,900,34.48275862068966,-0.987,-0.159,0.087
51743,1755604343681,80.06,-61.84,-33.13,783,885,864,370,910,33.333333333333336,-0.989,-0.16,0.086
51773,1755604343711,80.08,-61.86,-33.14,785,907,851,433,906,33.333333333333336,-0.989,-0.159,0.087
51802,1755604343741,80.11,-61.83,-33.14,785,898,857,399,900,34.48275862068966,-0.988,-0.158,0.088
51832,1755604343770,80.07,-61.8,-33.15,782,884,856,316,909,33.333333333333336,-0.986,-0.157,0.088
51862,1755604343800,80.07,-61.8,-33.19,782,897,847,329,904,33.333333333333336,-0.985,-0.156,0.087
51892,1755604343829,80.06,-61.8,-33.22,784,892,857,397,896,33.333333333333336,-0.987,-0.157,0.086
51921,1755604343859,80.03,-61.8,-33.23,784,905,850,419,903,34.48275862068966,-0.99,-0.159,0.087
51951,1755604343889,80.03,-61.75,-33.22,785,896,851,362,898,33.333333333333336,-0.99,-0.159,0.089
51981,1755604343918,80.03,-61.7,-33.21,786,883,861,333,904,33.333333333333336,-0.989,-0.158,0.09
52010,1755604343948,80.04,-61.68,-33.21,784,900,844,348,908,34.48275862068966,-0.988,-0.158,0.09
52039,1755604343977,80.05,-61.63,-33.21,780,889,850,440,908,34.48275862068966,-0.987,-0.158,0.088
52069,1755604344007,80.03,-61.61,-33.23,784,887,855,408,897,33.333333333333336,-0.987,-0.158,0.087
52099,1755604344037,80.03,-61.61,-33.24,782,889,850,342,907,33.333333333333336,-0.988,-0.158,0.087
52128,1755604344066,80.01,-61.61,-33.25,784,891,861,339,909,34.48275862068966,-0.988,-0.158,0.088
52158,1755604344096,80.03,-61.58,-33.27,786,890,839,418,903,33.333333333333336,-0.988,-0.158,0.089
52188,1755604344126,80.04,-61.56,-33.27,787,898,848,399,903,33.333333333333336,-0.989,-0.158,0.089
52217,1755604344155,80.03,-61.5,-33.27,790,891,846,367,904,34.48275862068966,-0.988,-0.157,0.089
52247,1755604344185,80.03,-61.46,-33.28,781,896,859,338,900,33.333333333333336,-0.987,-0.157,0.089
52276,1755604344215,80.04,-61.45,-33.3,785,894,853,376,897,34.48275862068966,-0.987,-0.158,0.089
52306,1755604344244,80.05,-61.43,-33.31,786,893,845,394,906,33.333333333333336,-0.988,-0.159,0.089
52335,1755604344274,80.04,-61.41,-33.31,784,889,855,387,901,34.48275862068966,-0.989,-0.159,0.089
52365,1755604344304,80.04,-61.42,-33.32,785,885,849,331,900,33.333333333333336,-0.988,-0.159,0.088
52395,1755604344333,80.04,-61.4,-33.33,785,890,851,320,901,33.333333333333336,-0.989,-0.158,0.089
52425,1755604344363,80.02,-61.38,-33.33,789,892,847,408,897,33.333333333333336,-0.988,-0.157,0.089
52454,1755604344393,80.02,-61.32,-33.34,781,902,853,423,908,34.48275862068966,-0.987,-0.157,0.09
52514,1755604344452,80.04,-61.23,-33.38,784,895,853,321,906,33.333333333333336,-0.988,-0.157,0.091
52544,1755604344482,80.05,-61.2,-33.38,781,899,849,325,907,33.333333333333336,-0.991,-0.158,0.09
52573,1755604344512,80.07,-61.18,-33.37,780,898,849,401,901,34.48275862068966,-0.99,-0.159,0.089
52603,1755604344541,80.1,-61.15,-33.38,788,886,858,389,901,33.333333333333336,-0.988,-0.158,0.089
52662,1755604344601,80.11,-61.12,-33.41,782,890,849,321,896,34.48275862068966,-0.987,-0.158,0.089
52692,1755604344631,80.13,-61.09,-33.41,781,894,844,385,910,33.333333333333336,-0.988,-0.158,0.088
52722,1755604344660,80.13,-61.06,-33.39,787,895,853,425,897,33.333333333333336,-0.987,-0.158,0.088
52752,1755604344690,80.16,-61.06,-33.39,782,889,853,414,901,33.333333333333336,-0.987,-0.158,0.086
52782,1755604344720,80.17,-61.09,-33.39,785,901,859,335,905,33.333333333333336,-0.987,-0.157,0.086
52811,1755604344749,80.17,-61.08,-33.39,782,902,855,340,903,34.48275862068966,-0.988,-0.155,0.086
52841,1755604344779,80.16,-61.06,-33.4,783,890,844,408,906,33.333333333333336,-0.988,-0.155,0.087
52870,1755604344809,80.15,-61.06,-33.41,786,889,840,435,904,34.48275862068966,-0.986,-0.155,0.087
52900,1755604344838,80.16,-61.06,-33.43,787,895,848,369,902,33.333333333333336,-0.986,-0.155,0.087
52930,1755604344868,80.17,-61.06,-33.44,788,886,853,335,904,33.333333333333336,-0.988,-0.156,0.087
52959,1755604344897,80.17,-61.06,-33.46,789,882,847,337,906,34.48275862068966,-0.987,-0.156,0.087
52989,1755604344927,80.15,-61.07,-33.47,783,894,853,412,904,33.333333333333336,-0.987,-0.156,0.086
53018,1755604344957,80.16,-61.06,-33.48,783,900,853,373,904,34.48275862068966,-0.988,-0.156,0.086
53039,1755604344977,80.15,-61.04,-33.48,784,879,853,385,905,47.61904761904762,-0.989,-0.155,0.088
53068,1755604345007,80.16,-61.02,-33.49,783,898,841,381,907,34.48275862068966,-0.988,-0.156,0.088
53088,1755604345027,80.17,-61.0,-33.5,784,909,854,404,898,50.0,-0.986,-0.156,0.087
53118,1755604345056,80.18,-60.96,-33.51,782,891,851,366,891,33.333333333333336,-0.986,-0.156,0.086
53147,1755604345086,80.17,-61.0,-33.53,787,892,845,307,904,34.48275862068966,-0.987,-0.157,0.086
53177,1755604345115,80.16,-61.01,-33.53,785,890,845,330,902,33.333333333333336,-0.987,-0.157,0.084
53207,1755604345145,80.19,-61.02,-33.54,784,888,840,416,899,33.333333333333336,-0.989,-0.157,0.085
53236,1755604345175,80.16,-61.03,-33.54,783,883,864,400,909,34.48275862068966,-0.987,-0.156,0.086
53266,1755604345205,80.16,-61.02,-33.57,786,893,865,345,906,33.333333333333336,-0.986,-0.156,0.086
53296,1755604345234,80.16,-61.04,-33.59,786,897,862,330,898,33.333333333333336,-0.988,-0.157,0.085
53326,1755604345264,80.14,-61.02,-33.59,783,887,858,386,901,33.333333333333336,-0.989,-0.157,0.085
53355,1755604345293,80.16,-61.03,-33.61,789,890,851,409,901,34.48275862068966,-0.989,-0.157,0.086
53385,1755604345323,80.16,-61.05,-33.63,791,891,844,374,904,33.333333333333336,-0.988,-0.156,0.087
53414,1755604345353,80.17,-61.01,-33.65,783,890,856,333,903,34.48275862068966,-0.987,-0.156,0.087
53444,1755604345382,80.16,-61.01,-33.66,783,889,853,342,907,33.333333333333336,-0.988,-0.157,0.087
53474,1755604345412,80.18,-61.02,-33.69,783,888,849,415,905,33.333333333333336,-0.989,-0.157,0.086
53503,1755604345441,80.16,-61.03,-33.7,783,885,852,410,905,34.48275862068966,-0.988,-0.157,0.086
53533,1755604345471,80.16,-61.01,-33.72,782,892,856,340,906,33.333333333333336,-0.988,-0.157,0.085
53562,1755604345500,80.15,-61.03,-33.74,786,891,850,338,899,34.48275862068966,-0.988,-0.158,0.086
53592,1755604345530,80.17,-61.02,-33.76,785,899,855,383,893,33.333333333333336,-0.989,-0.158,0.086
53622,1755604345560,80.16,-61.04,-33.76,786,895,851,423,900,33.333333333333336,-0.989,-0.158,0.086
53652,1755604345590,80.19,-61.08,-33.81,786,897,866,403,913,33.333333333333336,-0.986,-0.157,0.086
53681,1755604345619,80.17,-61.07,-33.82,783,893,852,335,901,34.48275862068966,-0.986,-0.157,0.086
53711,1755604345649,80.19,-61.08,-33.85,784,888,845,337,894,33.333333333333336,-0.988,-0.158,0.087
53740,1755604345679,80.18,-61.08,-33.85,782,891,856,421,904,34.48275862068966,-0.989,-0.159,0.088
53770,1755604345708,80.19,-61.06,-33.86,786,885,863,418,899,33.333333333333336,-0.988,-0.159,0.088
53790,1755604345728,80.19,-61.06,-33.86,786,893,848,404,908,50.0,-0.987,-0.16,0.088
53820,1755604345758,80.19,-61.05,-33.87,782,889,850,405,907,33.333333333333336,-0.987,-0.159,0.087
53849,1755604345788,80.17,-61.06,-33.88,790,888,857,336,903,34.48275862068966,-0.987,-0.159,0.086
53879,1755604345817,80.17,-61.08,-33.88,785,895,853,293,906,33.333333333333336,-0.988,-0.158,0.086
53909,1755604345847,80.18,-61.1,-33.89,783,891,858,360,892,33.333333333333336,-0.987,-0.158,0.086
53939,1755604345877,80.16,-61.08,-33.9,787,888,856,430,902,33.333333333333336,-0.987,-0.158,0.087
53969,1755604345907,80.16,-61.08,-33.92,784,892,848,404,900,33.333333333333336,-0.987,-0.159,0.088
53998,1755604345936,80.16,-61.07,-33.94,784,894,857,334,895,34.48275862068966,-0.987,-0.16,0.088
54028,1755604345966,80.18,-61.06,-33.96,782,893,854,348,905,33.333333333333336,-0.987,-0.161,0.086
54057,1755604345995,80.18,-61.05,-33.97,782,891,850,427,900,34.48275862068966,-0.988,-0.16,0.086
54087,1755604346025,80.16,-61.05,-33.98,788,895,850,405,904,33.333333333333336,-0.987,-0.16,0.087
54116,1755604346054,80.14,-61.03,-33.98,783,894,849,350,903,34.48275862068966,-0.987,-0.159,0.088
54146,1755604346084,80.12,-61.01,-33.99,784,890,848,332,904,33.333333333333336,-0.986,-0.16,0.087
54176,1755604346114,80.1,-61.01,-34.0,785,881,854,391,905,33.333333333333336,-0.988,-0.16,0.087
54205,1755604346143,80.1,-61.03,-33.99,785,894,848,428,905,34.48275862068966,-0.988,-0.159,0.088
54235,1755604346173,80.09,-61.0,-33.99,788,890,852,391,901,33.333333333333336,-0.987,-0.158,0.089
54264,1755604346202,80.11,-61.0,-34.02,784,892,861,323,902,34.48275862068966,-0.987,-0.158,0.089
54294,1755604346232,80.09,-60.96,-34.03,782,889,852,352,905,33.333333333333336,-0.987,-0.159,0.09
54323,1755604346262,80.1,-60.95,-34.05,787,887,846,439,905,34.48275862068966,-0.987,-0.16,0.089
54353,1755604346291,80.09,-60.97,-34.06,786,897,859,417,898,33.333333333333336,-0.988,-0.159,0.088
54382,1755604346320,80.08,-60.97,-34.08,788,891,855,343,910,34.48275862068966,-0.988,-0.159,0.088
54412,1755604346351,80.04,-60.97,-34.09,783,889,857,335,906,33.333333333333336,-0.986,-0.159,0.089
54442,1755604346380,80.04,-60.94,-34.1,785,888,847,398,910,33.333333333333336,-0.987,-0.159,0.09
54471,1755604346409,80.01,-60.93,-34.11,788,894,857,423,922,34.48275862068966,-0.987,-0.159,0.09
54501,1755604346439,80.03,-60.89,-34.12,780,898,847,385,902,33.333333333333336,-0.987,-0.159,0.09
54530,1755604346469,80.03,-60.9,-34.13,787,890,856,329,901,34.48275862068966,-0.988,-0.159,0.089
54560,1755604346498,80.01,-60.89,-34.13,787,886,851,358,903,33.333333333333336,-0.988,-0.16,0.09
54590,1755604346528,80.02,-60.88,-34.14,786,891,857,441,902,33.333333333333336,-0.987,-0.16,0.089
