timestamp_ms,recv_timestamp_ms,pitch,roll,yaw,flex1,flex2,flex3,flex4,flex5,sampling_hz,accel_x,accel_y,accel_z
114710,1755602824423,18.82,8.32,-8.71,788,835,770,382,815,34.48275862068966,-0.318,0.141,0.946
115269,1755602824462,18.83,8.32,-8.79,790,841,780,332,813,34.48275862068966,-0.319,0.139,0.945
115457,1755602824476,18.86,8.37,-8.8,785,845,775,319,815,33.333333333333336,-0.317,0.141,0.944
115487,1755602824478,18.88,8.35,-8.83,788,843,778,328,816,33.333333333333336,-0.317,0.141,0.944
115575,1755602824484,18.9,8.32,-8.9,785,844,775,352,818,34.48275862068966,-0.321,0.137,0.943
115693,1755602824492,18.9,8.33,-8.9,789,842,771,394,814,34.48275862068966,-0.32,0.14,0.944
115723,1755602824494,18.85,8.36,-8.93,786,837,776,328,816,33.333333333333336,-0.316,0.142,0.945
115811,1755602824500,18.77,8.38,-9.07,787,844,773,367,812,33.333333333333336,-0.318,0.139,0.944
116097,1755602824521,19.02,8.2,-9.03,789,845,773,411,819,34.48275862068966,-0.322,0.139,0.944
116185,1755602824527,19.06,8.15,-9.03,788,845,775,352,818,34.48275862068966,-0.322,0.134,0.946
116244,1755602824530,19.08,8.17,-9.03,787,844,777,394,808,34.48275862068966,-0.323,0.136,0.945
116510,1755602824548,19.05,8.13,-9.09,788,846,780,382,809,33.333333333333336,-0.324,0.135,0.947
116716,1755602824562,19.02,8.17,-9.13,786,845,770,403,820,34.48275862068966,-0.322,0.135,0.945
116775,1755602824566,19.02,8.17,-9.14,785,844,777,384,815,34.48275862068966,-0.324,0.134,0.946
117179,1755602824595,18.95,8.18,-9.24,784,846,777,426,812,33.333333333333336,-0.319,0.135,0.948
117208,1755602824597,18.96,8.17,-9.23,793,842,773,359,814,34.48275862068966,-0.322,0.133,0.946
117296,1755602824603,18.91,8.1,-9.15,789,842,773,412,813,34.48275862068966,-0.323,0.134,0.94
117326,1755602824606,18.92,8.06,-9.15,787,842,773,388,808,33.333333333333336,-0.324,0.133,0.945
117355,1755602824608,18.89,8.09,-9.12,783,835,776,338,811,34.48275862068966,-0.324,0.133,0.948
117385,1755602824610,18.91,8.11,-9.1,790,842,775,344,813,33.333333333333336,-0.323,0.134,0.946
117415,1755602824611,18.89,8.1,-9.09,788,840,776,426,814,33.333333333333336,-0.322,0.134,0.944
117445,1755602824614,18.87,8.06,-9.09,785,840,775,410,814,33.333333333333336,-0.323,0.133,0.946
117504,1755602824617,18.94,8.54,-9.04,792,837,771,324,817,34.48275862068966,-0.323,0.133,0.948
117534,1755602824619,18.95,8.52,-9.01,787,834,771,366,817,33.333333333333336,-0.321,0.134,0.945
117563,1755602824622,18.96,8.44,-9.0,786,839,775,412,819,34.48275862068966,-0.32,0.135,0.944
117622,1755602824626,18.98,8.39,-9.01,790,843,774,338,817,34.48275862068966,-0.32,0.133,0.948
117642,1755602824628,18.99,8.37,-9.01,783,829,771,405,816,50.0,-0.32,0.132,0.947
117671,1755602824630,18.99,8.37,-9.01,782,846,778,328,815,34.48275862068966,-0.32,0.132,0.947
117731,1755602824634,18.92,8.44,-9.03,789,830,774,420,817,33.333333333333336,-0.32,0.135,0.947
117761,1755602824636,18.89,8.47,-9.03,786,839,778,404,813,33.333333333333336,-0.321,0.133,0.946
117790,1755602824638,18.94,8.48,-9.03,783,839,767,325,821,34.48275862068966,-0.32,0.132,0.947
117820,1755602824640,18.95,8.49,-9.02,788,831,775,334,810,33.333333333333336,-0.321,0.133,0.945
117879,1755602824644,19.02,8.48,-9.03,788,840,769,425,810,33.333333333333336,-0.321,0.137,0.942
117908,1755602824645,18.99,8.47,-9.04,792,838,774,334,808,34.48275862068966,-0.32,0.138,0.942
117938,1755602824648,18.93,8.43,-9.07,787,844,774,326,818,33.333333333333336,-0.316,0.138,0.944
117967,1755602824650,18.9,8.39,-9.12,785,838,765,371,813,34.48275862068966,-0.316,0.138,0.945
117997,1755602824651,18.86,8.42,-9.16,788,838,773,422,811,33.333333333333336,-0.318,0.136,0.947
118026,1755602824653,18.82,8.42,-9.2,781,837,779,352,813,34.48275862068966,-0.32,0.133,0.947
118056,1755602824656,18.82,8.41,-9.22,786,836,777,299,811,33.333333333333336,-0.324,0.132,0.944
118085,1755602824658,18.81,8.41,-9.21,787,832,774,344,822,34.48275862068966,-0.327,0.133,0.944
118114,1755602824660,18.81,8.42,-9.18,784,844,777,417,818,34.48275862068966,-0.327,0.133,0.944
118144,1755602824662,18.82,8.43,-9.15,788,839,773,398,814,33.333333333333336,-0.325,0.132,0.944
118173,1755602824664,18.8,8.44,-9.09,785,836,774,309,814,34.48275862068966,-0.322,0.131,0.945
118202,1755602824665,18.82,8.44,-9.07,779,834,775,338,808,34.48275862068966,-0.318,0.134,0.945
118232,1755602824668,18.85,8.42,-9.07,784,843,774,413,816,33.333333333333336,-0.317,0.138,0.945
118262,1755602824669,18.84,8.41,-9.06,786,836,769,402,819,33.333333333333336,-0.318,0.139,0.945
118292,1755602824672,18.82,8.4,-9.05,789,837,780,368,813,33.333333333333336,-0.319,0.136,0.945
118321,1755602824674,18.81,8.37,-9.03,789,838,776,310,813,34.48275862068966,-0.319,0.135,0.946
118351,1755602824676,18.83,8.37,-9.02,789,834,774,364,815,33.333333333333336,-0.318,0.135,0.947
118380,1755602824678,18.85,8.4,-9.01,787,836,778,426,816,34.48275862068966,-0.319,0.136,0.947
118410,1755602824680,18.82,8.42,-9.0,782,837,769,396,812,33.333333333333336,-0.317,0.137,0.946
118439,1755602824682,18.79,8.4,-9.01,784,842,772,278,815,34.48275862068966,-0.315,0.138,0.946
118469,1755602824684,18.79,8.39,-9.04,785,832,781,319,812,33.333333333333336,-0.315,0.139,0.947
118498,1755602824686,18.77,8.39,-9.05,787,833,774,415,813,34.48275862068966,-0.316,0.138,0.948
118528,1755602824689,18.76,8.41,-9.05,792,838,770,416,810,33.333333333333336,-0.317,0.137,0.948
118557,1755602824691,18.73,8.42,-9.04,790,826,773,337,815,34.48275862068966,-0.318,0.137,0.947
118586,1755602824693,18.71,8.43,-9.02,785,839,772,324,815,34.48275862068966,-0.318,0.139,0.946
118616,1755602824695,18.74,8.41,-9.02,783,841,774,402,811,33.333333333333336,-0.316,0.138,0.946
118645,1755602824697,18.73,8.35,-9.02,789,839,776,411,817,34.48275862068966,-0.316,0.139,0.947
118675,1755602824699,18.72,8.34,-9.02,787,827,774,355,810,33.333333333333336,-0.316,0.139,0.948
118733,1755602824702,18.71,8.33,-8.98,786,828,770,374,813,34.48275862068966,-0.316,0.136,0.95
118763,1755602824705,18.71,8.33,-8.96,789,831,771,420,814,33.333333333333336,-0.314,0.139,0.949
118792,1755602824707,18.72,8.3,-8.97,789,838,774,386,809,34.48275862068966,-0.313,0.14,0.948
118822,1755602824709,18.73,8.28,-8.99,782,837,778,319,813,33.333333333333336,-0.313,0.138,0.948
118851,1755602824711,18.77,8.24,-8.99,785,827,779,347,809,34.48275862068966,-0.316,0.136,0.949
118871,1755602824713,18.81,8.23,-8.99,786,843,774,352,810,50.0,-0.317,0.136,0.949
118901,1755602824715,18.91,8.21,-8.96,787,835,773,371,813,33.333333333333336,-0.32,0.136,0.95
118930,1755602824717,18.92,8.23,-8.95,790,837,777,434,809,34.48275862068966,-0.318,0.138,0.947
118959,1755602824719,18.95,8.21,-8.95,789,840,778,387,812,34.48275862068966,-0.317,0.138,0.945
118989,1755602824721,18.96,8.19,-8.96,787,836,778,317,813,33.333333333333336,-0.316,0.138,0.945
119018,1755602824723,19.01,8.19,-8.97,789,834,775,347,814,34.48275862068966,-0.318,0.136,0.948
119048,1755602824725,19.02,8.24,-8.97,789,832,769,414,803,33.333333333333336,-0.32,0.136,0.949
119077,1755602824727,19.07,8.24,-8.96,787,836,776,412,806,34.48275862068966,-0.319,0.137,0.945
119107,1755602824729,19.07,8.24,-8.97,785,837,773,349,812,33.333333333333336,-0.32,0.137,0.944
119136,1755602824732,19.05,8.22,-8.97,789,835,771,323,817,34.48275862068966,-0.321,0.137,0.945
119157,1755602824734,19.04,8.22,-8.96,791,838,775,371,805,47.61904761904762,-0.323,0.138,0.946
119186,1755602824735,19.03,8.24,-8.95,789,828,777,350,814,34.48275862068966,-0.322,0.137,0.947
119216,1755602824738,19.05,8.23,-8.94,785,838,775,405,812,33.333333333333336,-0.321,0.136,0.946
119245,1755602824740,19.06,8.22,-8.94,788,835,780,424,818,34.48275862068966,-0.321,0.136,0.945
119274,1755602824742,19.05,8.22,-8.93,785,841,776,372,811,34.48275862068966,-0.323,0.137,0.946
119304,1755602824744,19.06,8.24,-8.91,784,837,776,323,819,33.333333333333336,-0.323,0.137,0.946
119363,1755602824748,19.07,8.28,-8.89,787,835,773,412,811,33.333333333333336,-0.321,0.14,0.943
119392,1755602824750,19.05,8.27,-8.89,789,842,780,399,810,34.48275862068966,-0.322,0.141,0.943
119422,1755602824752,19.04,8.28,-8.88,787,836,780,316,815,33.333333333333336,-0.322,0.141,0.943
119451,1755602824754,19.07,8.26,-8.88,789,841,781,338,811,34.48275862068966,-0.321,0.138,0.944
119510,1755602824758,19.11,8.24,-8.85,785,835,778,412,807,33.333333333333336,-0.322,0.136,0.945
119539,1755602824760,19.14,8.23,-8.82,787,843,778,339,809,34.48275862068966,-0.324,0.137,0.945
119569,1755602824762,19.13,8.22,-8.79,789,839,769,331,812,33.333333333333336,-0.321,0.139,0.943
119598,1755602824764,19.13,8.19,-8.78,785,839,779,424,812,34.48275862068966,-0.318,0.142,0.942
119628,1755602824766,19.11,8.17,-8.82,785,834,775,429,819,33.333333333333336,-0.316,0.143,0.944
119657,1755602824769,19.12,8.16,-8.9,787,830,778,314,811,34.48275862068966,-0.316,0.141,0.947
119687,1755602824771,19.13,8.18,-8.97,782,841,774,312,824,33.333333333333336,-0.317,0.137,0.947
119716,1755602824773,19.17,8.19,-9.02,788,830,778,368,812,34.48275862068966,-0.319,0.137,0.947
119746,1755602824775,19.18,8.21,-9.07,788,836,780,409,810,33.333333333333336,-0.323,0.138,0.946
119775,1755602824777,19.18,8.23,-9.09,786,837,774,371,815,34.48275862068966,-0.325,0.138,0.944
119804,1755602824779,19.22,8.2,-9.11,789,844,779,277,823,34.48275862068966,-0.326,0.137,0.942
119863,1755602824783,19.3,8.08,-9.15,784,837,773,422,815,34.48275862068966,-0.326,0.137,0.944
119893,1755602824785,19.31,8.07,-9.16,784,836,778,365,817,33.333333333333336,-0.328,0.136,0.945
119923,1755602824787,19.38,8.05,-9.18,787,832,780,312,820,33.333333333333336,-0.33,0.132,0.944
119952,1755602824789,19.39,8.05,-9.17,786,842,774,326,814,34.48275862068966,-0.331,0.129,0.944
119972,1755602824791,19.4,8.05,-9.15,787,837,777,371,815,50.0,-0.332,0.127,0.945
120002,1755602824792,19.41,8.1,-9.14,786,837,773,365,816,33.333333333333336,-0.33,0.128,0.946
120031,1755602824794,19.45,8.16,-9.14,786,828,772,438,808,34.48275862068966,-0.328,0.132,0.946
120090,1755602824798,19.44,8.26,-9.23,788,830,772,344,812,33.333333333333336,-0.322,0.139,0.94
120119,1755602824801,19.42,8.23,-9.33,786,836,774,338,814,34.48275862068966,-0.321,0.138,0.94
120178,1755602824805,19.4,8.24,-9.43,780,834,778,432,812,34.48275862068966,-0.33,0.134,0.943
120207,1755602824807,19.41,8.27,-9.42,791,833,770,366,812,34.48275862068966,-0.331,0.134,0.942
120237,1755602824809,19.42,8.26,-9.43,791,840,776,334,813,33.333333333333336,-0.331,0.136,0.94
120266,1755602824811,19.46,8.21,-9.44,790,837,780,390,810,34.48275862068966,-0.331,0.136,0.94
120325,1755602824815,19.56,8.15,-9.49,786,832,782,389,813,33.333333333333336,-0.332,0.133,0.944
120354,1755602824817,19.59,8.17,-9.47,789,836,773,326,809,34.48275862068966,-0.333,0.133,0.944
120384,1755602824819,19.64,8.16,-9.45,785,840,776,372,814,33.333333333333336,-0.331,0.135,0.941
120414,1755602824821,19.68,8.1,-9.47,785,837,784,445,821,33.333333333333336,-0.333,0.134,0.94
120443,1755602824829,19.25,8.08,-9.44,784,843,779,402,809,34.48275862068966,-0.336,0.134,0.942
120473,1755602824859,19.29,8.08,-9.4,788,832,778,330,812,33.333333333333336,-0.336,0.133,0.943
120502,1755602824888,19.35,8.08,-9.37,785,837,778,349,811,34.48275862068966,-0.336,0.133,0.942
120532,1755602824918,19.41,8.04,-9.36,786,838,770,425,811,33.333333333333336,-0.335,0.135,0.941
120561,1755602824947,19.51,8.0,-9.36,792,840,770,416,809,34.48275862068966,-0.335,0.135,0.941
120591,1755602824977,19.56,7.98,-9.37,784,841,777,364,815,33.333333333333336,-0.334,0.136,0.94
120620,1755602825007,19.59,7.94,-9.39,786,838,770,340,810,34.48275862068966,-0.334,0.135,0.94
120670,1755602825056,19.58,7.92,-9.44,788,843,774,338,811,50.0,-0.335,0.133,0.942
120699,1755602825086,19.56,7.93,-9.48,786,842,772,376,810,34.48275862068966,-0.335,0.133,0.941
120729,1755602825115,19.55,7.93,-9.53,787,835,776,408,817,33.333333333333336,-0.338,0.133,0.941
120758,1755602825145,19.55,7.95,-9.57,788,840,778,388,806,34.48275862068966,-0.34,0.133,0.939
120788,1755602825174,19.59,7.93,-9.62,790,841,770,334,822,33.333333333333336,-0.34,0.132,0.939
120817,1755602825203,19.64,7.92,-9.68,783,839,780,375,807,34.48275862068966,-0.341,0.13,0.941
120847,1755602825233,19.69,7.91,-9.71,789,836,767,435,813,33.333333333333336,-0.342,0.13,0.94
120876,1755602825262,19.75,7.89,-9.72,784,833,774,395,810,34.48275862068966,-0.345,0.129,0.938
120905,1755602825291,19.76,7.87,-9.71,782,834,777,305,808,34.48275862068966,-0.346,0.13,0.937
120935,1755602825321,19.77,7.82,-9.7,784,836,772,318,813,33.333333333333336,-0.346,0.129,0.937
120964,1755602825350,19.79,7.73,-9.69,783,836,771,386,808,34.48275862068966,-0.345,0.128,0.938
120993,1755602825379,19.76,7.68,-9.67,781,836,775,398,810,34.48275862068966,-0.343,0.127,0.94
121023,1755602825409,19.75,7.65,-9.67,789,836,770,334,815,33.333333333333336,-0.341,0.126,0.943
121052,1755602825438,19.8,7.66,-9.68,779,840,773,337,812,34.48275862068966,-0.339,0.125,0.946
121082,1755602825468,19.84,7.69,-9.68,784,837,772,398,813,33.333333333333336,-0.338,0.126,0.944
121111,1755602825497,19.84,7.68,-9.69,786,839,778,396,812,34.48275862068966,-0.338,0.129,0.94
121141,1755602825527,19.87,7.62,-9.74,790,841,776,323,806,33.333333333333336,-0.338,0.13,0.938
121170,1755602825556,19.93,7.53,-9.8,787,838,779,311,807,34.48275862068966,-0.339,0.129,0.94
121199,1755602825585,19.98,7.48,-9.84,790,832,778,374,812,34.48275862068966,-0.341,0.125,0.941
121229,1755602825615,20.09,7.38,-9.87,788,836,779,425,813,33.333333333333336,-0.343,0.123,0.942
121258,1755602825645,20.13,7.37,-9.88,789,837,775,357,809,34.48275862068966,-0.347,0.123,0.943
121288,1755602825674,20.18,7.33,-9.9,789,837,773,308,809,33.333333333333336,-0.347,0.123,0.941
121317,1755602825703,20.21,7.31,-9.92,783,843,770,354,809,34.48275862068966,-0.348,0.124,0.939
121347,1755602825733,20.21,7.3,-9.95,785,832,773,422,813,33.333333333333336,-0.347,0.122,0.939
121376,1755602825762,20.24,7.27,-9.96,788,837,780,406,816,34.48275862068966,-0.349,0.118,0.94
121405,1755602825791,20.18,7.28,-9.93,785,833,778,321,811,34.48275862068966,-0.351,0.116,0.94
121435,1755602825821,20.11,7.32,-9.88,791,836,779,292,810,33.333333333333336,-0.351,0.117,0.939
121464,1755602825850,20.15,7.32,-9.87,785,831,777,397,812,34.48275862068966,-0.35,0.119,0.939
121494,1755602825880,20.27,7.3,-9.89,789,836,768,417,822,33.333333333333336,-0.347,0.121,0.937
121523,1755602825909,20.46,7.21,-9.96,786,838,775,356,813,34.48275862068966,-0.348,0.119,0.937
121553,1755602825939,20.44,7.23,-9.94,792,828,772,331,816,33.333333333333336,-0.353,0.114,0.941
121582,1755602825969,20.39,7.3,-9.88,784,835,777,385,808,34.48275862068966,-0.354,0.113,0.941
121602,1755602825989,20.45,7.3,-9.85,784,841,773,337,818,50.0,-0.355,0.114,0.94
121632,1755602826018,20.47,7.32,-9.81,788,843,772,398,809,33.333333333333336,-0.354,0.118,0.938
121661,1755602826047,20.51,7.31,-9.8,788,833,773,429,812,34.48275862068966,-0.351,0.123,0.935
121691,1755602826077,20.46,7.32,-9.81,787,835,769,369,818,33.333333333333336,-0.35,0.125,0.935
121720,1755602826107,20.44,7.31,-9.84,789,838,775,320,813,34.48275862068966,-0.349,0.122,0.936
121741,1755602826127,20.47,7.29,-9.86,789,838,772,402,818,47.61904761904762,-0.349,0.121,0.938
121770,1755602826156,20.48,7.3,-9.87,785,834,778,347,814,34.48275862068966,-0.349,0.119,0.939
121800,1755602826186,20.49,7.3,-9.9,788,834,774,371,812,33.333333333333336,-0.348,0.119,0.938
121829,1755602826215,20.51,7.3,-9.94,790,832,772,426,812,34.48275862068966,-0.348,0.12,0.937
121858,1755602826244,20.57,7.28,-10.0,785,834,778,395,808,34.48275862068966,-0.349,0.122,0.937
121888,1755602826274,20.63,7.26,-10.07,783,838,779,327,806,33.333333333333336,-0.352,0.122,0.936
121947,1755602826333,20.59,7.2,-10.1,788,831,773,426,811,33.333333333333336,-0.353,0.117,0.936
121976,1755602826362,20.62,7.19,-10.09,791,842,773,402,811,34.48275862068966,-0.354,0.116,0.939
122006,1755602826392,20.6,7.23,-10.06,787,838,774,327,810,33.333333333333336,-0.355,0.114,0.94
122035,1755602826421,20.59,7.24,-10.03,782,841,775,343,808,34.48275862068966,-0.356,0.113,0.938
122065,1755602826452,20.59,7.22,-9.98,788,828,777,396,819,33.333333333333336,-0.357,0.114,0.936
122115,1755602826501,20.62,7.21,-9.91,788,833,775,402,814,33.333333333333336,-0.357,0.116,0.935
122144,1755602826531,20.59,7.24,-9.83,783,838,777,407,814,34.48275862068966,-0.357,0.117,0.935
122204,1755602826590,20.57,7.21,-9.73,787,836,773,320,813,33.333333333333336,-0.353,0.118,0.935
122233,1755602826619,20.51,7.21,-9.68,785,838,782,377,812,34.48275862068966,-0.352,0.118,0.937
122262,1755602826648,20.46,7.28,-9.63,788,830,776,446,816,34.48275862068966,-0.351,0.119,0.938
122292,1755602826678,20.47,7.31,-9.61,785,833,773,406,812,33.333333333333336,-0.35,0.119,0.937
122321,1755602826707,20.45,7.33,-9.57,789,827,776,332,812,34.48275862068966,-0.351,0.119,0.937
122350,1755602826737,20.41,7.36,-9.52,790,838,772,348,809,34.48275862068966,-0.351,0.121,0.937
122380,1755602826766,20.39,7.39,-9.48,783,835,778,433,812,33.333333333333336,-0.349,0.124,0.935
122410,1755602826796,20.37,7.37,-9.46,789,835,772,429,817,33.333333333333336,-0.345,0.124,0.934
122439,1755602826826,20.34,7.36,-9.46,789,845,771,349,811,34.48275862068966,-0.343,0.125,0.937
122469,1755602826855,20.33,7.38,-9.48,793,840,774,346,816,33.333333333333336,-0.343,0.125,0.938
122498,1755602826885,20.29,7.43,-9.48,787,829,773,387,814,34.48275862068966,-0.343,0.124,0.939
122528,1755602826914,20.26,7.46,-9.49,787,829,775,414,811,33.333333333333336,-0.342,0.125,0.937
122558,1755602826944,20.22,7.5,-9.51,788,840,771,367,814,33.333333333333336,-0.341,0.128,0.936
122587,1755602826974,20.19,7.48,-9.56,788,825,773,312,814,34.48275862068966,-0.341,0.129,0.935
122617,1755602827003,20.16,7.46,-9.61,784,831,780,333,813,33.333333333333336,-0.343,0.127,0.937
122646,1755602827032,20.17,7.46,-9.63,784,836,774,418,812,34.48275862068966,-0.344,0.126,0.937
122696,1755602827082,20.16,7.48,-9.66,789,833,776,394,809,50.0,-0.345,0.123,0.938
122725,1755602827111,20.15,7.48,-9.67,789,841,773,376,811,34.48275862068966,-0.344,0.124,0.937
122755,1755602827141,20.16,7.44,-9.69,788,837,777,318,813,33.333333333333336,-0.344,0.124,0.938
122784,1755602827170,20.13,7.42,-9.71,787,840,770,335,819,34.48275862068966,-0.342,0.125,0.939
122813,1755602827199,20.11,7.42,-9.74,789,832,773,403,813,34.48275862068966,-0.34,0.126,0.94
122843,1755602827229,20.12,7.44,-9.78,786,833,771,400,814,33.333333333333336,-0.34,0.126,0.94
122872,1755602827258,20.09,7.46,-9.82,783,832,776,335,809,34.48275862068966,-0.34,0.124,0.94
122902,1755602827288,20.08,7.46,-9.85,791,840,776,353,810,33.333333333333336,-0.342,0.123,0.938
122931,1755602827317,20.1,7.43,-9.87,788,839,770,398,812,34.48275862068966,-0.344,0.122,0.938
122961,1755602827347,20.08,7.42,-9.88,787,833,767,400,812,33.333333333333336,-0.345,0.122,0.939
122990,1755602827377,20.07,7.43,-9.88,789,837,782,347,810,34.48275862068966,-0.344,0.122,0.939
123020,1755602827406,20.08,7.43,-9.88,783,838,774,329,804,33.333333333333336,-0.343,0.122,0.939
123050,1755602827436,20.09,7.42,-9.88,785,832,774,357,811,33.333333333333336,-0.343,0.123,0.939
123109,1755602827495,20.11,7.38,-9.89,786,836,772,390,811,33.333333333333336,-0.342,0.122,0.94
123138,1755602827525,20.1,7.39,-9.89,782,842,768,335,816,34.48275862068966,-0.341,0.122,0.941
123168,1755602827554,20.11,7.4,-9.88,788,832,777,343,817,33.333333333333336,-0.34,0.123,0.94
123198,1755602827584,20.12,7.4,-9.89,788,838,776,423,811,33.333333333333336,-0.34,0.123,0.94
123227,1755602827613,20.1,7.41,-9.9,786,841,775,426,812,34.48275862068966,-0.339,0.124,0.94
123257,1755602827643,20.12,7.41,-9.94,787,837,778,363,809,33.333333333333336,-0.339,0.123,0.94
123286,1755602827672,20.1,7.42,-9.97,789,835,776,340,818,34.48275862068966,-0.341,0.123,0.94
123316,1755602827702,20.1,7.45,-10.0,786,832,770,377,818,33.333333333333336,-0.343,0.124,0.94
123345,1755602827731,20.12,7.48,-10.03,789,835,781,428,816,34.48275862068966,-0.342,0.123,0.939
