timestamp_ms,recv_timestamp_ms,pitch,roll,yaw,flex1,flex2,flex3,flex4,flex5,sampling_hz,accel_x,accel_y,accel_z
149732,1755602855236,21.26,5.95,-15.4,787,837,777,301,813,34.48275862068966,-0.355,0.099,0.936
149761,1755602855238,21.24,5.95,-15.42,789,833,773,331,812,34.48275862068966,-0.356,0.097,0.937
149791,1755602855240,21.24,5.94,-15.43,784,837,778,420,809,33.333333333333336,-0.357,0.097,0.938
149820,1755602855242,21.24,5.96,-15.43,780,837,777,408,813,34.48275862068966,-0.357,0.097,0.938
149850,1755602855244,21.23,5.95,-15.42,784,832,766,328,813,33.333333333333336,-0.356,0.097,0.937
149880,1755602855246,21.22,5.94,-15.42,782,833,772,344,809,33.333333333333336,-0.356,0.097,0.937
149909,1755602855247,21.22,5.94,-15.41,788,833,773,412,810,34.48275862068966,-0.355,0.098,0.938
149938,1755602855249,21.23,5.93,-15.42,782,833,774,413,817,34.48275862068966,-0.354,0.098,0.938
149968,1755602855251,21.19,5.93,-15.42,787,832,781,340,811,33.333333333333336,-0.354,0.098,0.938
150027,1755602855255,21.22,5.91,-15.44,785,836,774,371,815,34.48275862068966,-0.356,0.096,0.939
150057,1755602855258,21.21,5.93,-15.43,789,823,780,420,814,33.333333333333336,-0.356,0.097,0.938
150086,1755602855260,21.19,5.93,-15.42,785,828,775,385,812,34.48275862068966,-0.355,0.098,0.938
150116,1755602855262,21.19,5.89,-15.42,782,832,773,315,818,33.333333333333336,-0.354,0.097,0.938
150145,1755602855264,21.18,5.89,-15.42,782,835,774,326,814,34.48275862068966,-0.355,0.096,0.939
150175,1755602855266,21.18,5.91,-15.4,787,833,776,416,811,33.333333333333336,-0.357,0.096,0.94
150204,1755602855268,21.16,5.94,-15.37,786,837,771,403,814,34.48275862068966,-0.357,0.097,0.939
150233,1755602855270,21.15,5.96,-15.34,782,823,778,345,806,34.48275862068966,-0.356,0.098,0.937
150263,1755602855272,21.15,5.92,-15.34,790,831,778,350,811,33.333333333333336,-0.353,0.099,0.937
150293,1755602855274,21.12,5.9,-15.34,789,832,774,407,818,33.333333333333336,-0.353,0.098,0.939
150322,1755602855277,21.1,5.93,-15.34,789,825,770,409,812,34.48275862068966,-0.354,0.098,0.941
150352,1755602855278,21.1,5.95,-15.33,789,833,772,383,810,33.333333333333336,-0.354,0.098,0.94
150381,1755602855280,21.09,5.96,-15.32,791,830,766,330,806,34.48275862068966,-0.354,0.098,0.939
150411,1755602855283,21.07,5.96,-15.32,789,834,778,313,810,33.333333333333336,-0.353,0.1,0.938
150441,1755602855285,21.06,5.95,-15.32,787,827,776,402,809,33.333333333333336,-0.353,0.101,0.938
150470,1755602855287,21.05,5.96,-15.32,784,837,775,407,810,34.48275862068966,-0.353,0.1,0.939
150500,1755602855288,21.04,5.97,-15.32,788,832,769,292,812,33.333333333333336,-0.352,0.099,0.939
150529,1755602855290,21.01,5.99,-15.34,788,837,774,330,812,34.48275862068966,-0.352,0.099,0.939
150579,1755602855294,20.98,6.01,-15.35,788,823,772,329,811,50.0,-0.352,0.1,0.939
150608,1755602855296,20.96,6.02,-15.35,783,841,777,410,812,34.48275862068966,-0.352,0.1,0.938
150638,1755602855298,20.97,6.01,-15.36,789,830,773,404,805,33.333333333333336,-0.352,0.1,0.938
150667,1755602855300,20.95,6.03,-15.36,788,839,776,357,820,34.48275862068966,-0.352,0.101,0.939
150697,1755602855302,20.94,6.04,-15.38,787,831,772,346,815,33.333333333333336,-0.352,0.1,0.939
150726,1755602855304,20.96,6.05,-15.38,786,837,782,395,814,34.48275862068966,-0.352,0.1,0.939
150755,1755602855306,20.97,6.04,-15.38,784,832,775,409,809,34.48275862068966,-0.353,0.1,0.937
150785,1755602855308,20.94,6.05,-15.37,787,843,773,383,813,33.333333333333336,-0.352,0.101,0.937
150815,1755602855309,20.95,6.04,-15.39,786,840,778,336,812,33.333333333333336,-0.351,0.102,0.938
150874,1755602855312,20.94,6.06,-15.43,783,834,773,435,812,33.333333333333336,-0.35,0.1,0.938
150903,1755602855315,20.91,6.04,-15.44,787,841,777,387,813,34.48275862068966,-0.351,0.1,0.938
150932,1755602855319,20.92,6.02,-15.44,784,832,770,311,806,34.48275862068966,-0.352,0.101,0.938
150962,1755602855349,20.9,6.03,-15.44,783,834,770,330,811,33.333333333333336,-0.353,0.102,0.938
150991,1755602855378,20.89,6.02,-15.44,788,824,774,410,813,34.48275862068966,-0.352,0.101,0.937
151021,1755602855408,20.88,6.01,-15.44,785,836,777,406,807,33.333333333333336,-0.352,0.099,0.939
151050,1755602855437,20.87,6.02,-15.42,787,829,769,340,818,34.48275862068966,-0.352,0.1,0.939
151080,1755602855466,20.87,6.03,-15.41,788,828,777,336,807,33.333333333333336,-0.351,0.101,0.938
151109,1755602855495,20.87,6.02,-15.42,785,843,773,412,808,34.48275862068966,-0.351,0.101,0.937
151138,1755602855525,20.86,6.0,-15.42,785,831,776,429,816,34.48275862068966,-0.351,0.099,0.938
151168,1755602855554,20.86,6.01,-15.41,784,828,771,374,806,33.333333333333336,-0.352,0.099,0.939
151197,1755602855584,20.86,6.04,-15.39,783,824,777,329,813,34.48275862068966,-0.352,0.1,0.939
151227,1755602855614,20.85,6.06,-15.38,784,833,779,372,814,33.333333333333336,-0.351,0.101,0.938
151257,1755602855643,20.84,6.05,-15.39,785,826,777,431,810,33.333333333333336,-0.349,0.102,0.937
151286,1755602855673,20.81,6.02,-15.39,784,823,781,417,810,34.48275862068966,-0.35,0.101,0.938
151316,1755602855702,20.8,6.02,-15.39,787,827,776,335,807,33.333333333333336,-0.35,0.101,0.94
151345,1755602855732,20.82,6.06,-15.38,788,827,774,339,808,34.48275862068966,-0.35,0.101,0.94
151375,1755602855761,20.81,6.07,-15.39,791,840,780,415,814,33.333333333333336,-0.349,0.101,0.939
151404,1755602855791,20.8,6.07,-15.4,790,830,778,416,816,34.48275862068966,-0.348,0.101,0.937
151434,1755602855820,20.78,6.05,-15.4,781,834,776,333,813,33.333333333333336,-0.348,0.102,0.938
151463,1755602855850,20.77,6.06,-15.41,790,831,771,320,814,34.48275862068966,-0.348,0.102,0.94
151493,1755602855880,20.77,6.07,-15.41,787,836,775,369,811,33.333333333333336,-0.348,0.102,0.94
151522,1755602855909,20.77,6.06,-15.42,787,837,776,400,811,34.48275862068966,-0.348,0.101,0.939
151552,1755602855939,20.76,6.07,-15.43,789,837,775,384,813,33.333333333333336,-0.349,0.101,0.939
151582,1755602855969,20.77,6.07,-15.43,787,834,768,326,815,33.333333333333336,-0.35,0.101,0.94
151612,1755602855998,20.77,6.07,-15.41,791,824,774,330,811,33.333333333333336,-0.349,0.102,0.939
151641,1755602856028,20.77,6.05,-15.39,783,834,773,411,814,34.48275862068966,-0.348,0.102,0.938
151671,1755602856057,20.77,6.03,-15.39,788,825,773,412,812,33.333333333333336,-0.348,0.102,0.939
151700,1755602856087,20.79,6.03,-15.39,788,824,780,323,815,34.48275862068966,-0.348,0.101,0.941
151759,1755602856145,20.79,6.05,-15.38,787,824,771,404,813,33.333333333333336,-0.347,0.103,0.938
151788,1755602856175,20.79,6.03,-15.4,786,835,771,418,824,34.48275862068966,-0.348,0.103,0.937
151818,1755602856204,20.79,6.01,-15.42,787,834,774,374,813,33.333333333333336,-0.349,0.102,0.938
151847,1755602856234,20.8,6.03,-15.43,786,832,777,336,821,34.48275862068966,-0.349,0.102,0.939
151877,1755602856263,20.8,6.06,-15.44,788,834,775,375,807,33.333333333333336,-0.349,0.103,0.939
151906,1755602856293,20.78,6.07,-15.46,783,831,777,433,806,34.48275862068966,-0.348,0.103,0.938
151935,1755602856322,20.8,6.05,-15.5,790,832,780,392,812,34.48275862068966,-0.349,0.103,0.938
151965,1755602856352,20.82,6.05,-15.52,788,833,779,329,814,33.333333333333336,-0.348,0.103,0.938
151995,1755602856381,20.83,6.05,-15.55,788,826,777,352,813,33.333333333333336,-0.349,0.103,0.938
152024,1755602856411,20.82,6.04,-15.57,788,824,777,433,812,34.48275862068966,-0.349,0.102,0.937
152054,1755602856440,20.84,6.02,-15.61,784,833,771,415,816,33.333333333333336,-0.35,0.101,0.938
152083,1755602856470,20.84,6.01,-15.62,788,832,778,342,816,34.48275862068966,-0.351,0.1,0.938
152113,1755602856499,20.86,6.01,-15.64,787,827,783,337,813,33.333333333333336,-0.351,0.101,0.938
152142,1755602856528,20.87,6.0,-15.65,789,828,773,406,812,34.48275862068966,-0.352,0.101,0.937
152171,1755602856558,20.88,5.97,-15.68,784,835,779,430,817,34.48275862068966,-0.351,0.101,0.937
152200,1755602856587,20.88,5.96,-15.7,784,832,767,351,820,34.48275862068966,-0.351,0.1,0.938
152230,1755602856616,20.88,5.98,-15.71,781,834,772,315,814,33.333333333333336,-0.352,0.099,0.939
152289,1755602856675,20.91,5.99,-15.73,786,828,777,407,817,33.333333333333336,-0.353,0.099,0.937
152318,1755602856704,20.91,5.97,-15.74,784,831,774,373,814,34.48275862068966,-0.353,0.099,0.936
152347,1755602856734,20.91,5.95,-15.75,783,833,769,283,813,34.48275862068966,-0.352,0.099,0.936
152377,1755602856763,20.92,5.94,-15.77,788,836,774,339,815,33.333333333333336,-0.353,0.098,0.938
152406,1755602856793,20.92,5.97,-15.78,783,828,775,402,823,34.48275862068966,-0.353,0.098,0.938
152436,1755602856823,20.93,5.98,-15.79,786,832,780,389,812,33.333333333333336,-0.353,0.097,0.937
152486,1755602856872,20.96,5.95,-15.78,783,834,768,384,813,33.333333333333336,-0.355,0.097,0.935
152515,1755602856901,20.93,5.94,-15.76,789,833,777,314,813,34.48275862068966,-0.355,0.096,0.936
152544,1755602856931,20.92,5.94,-15.72,789,828,779,339,809,34.48275862068966,-0.354,0.095,0.937
152574,1755602856960,20.93,5.94,-15.69,783,835,771,411,808,33.333333333333336,-0.351,0.098,0.937
152603,1755602856990,20.93,5.93,-15.69,778,841,775,396,804,34.48275862068966,-0.351,0.1,0.936
152662,1755602857049,20.93,5.91,-15.73,785,833,771,297,815,34.48275862068966,-0.352,0.1,0.937
152692,1755602857079,20.95,5.9,-15.76,790,828,767,387,819,33.333333333333336,-0.353,0.099,0.937
152722,1755602857108,20.95,5.88,-15.77,788,832,775,414,813,33.333333333333336,-0.354,0.097,0.936
152751,1755602857138,20.95,5.88,-15.77,789,837,776,369,816,34.48275862068966,-0.355,0.096,0.938
152839,1755602857226,20.93,5.9,-15.8,787,832,774,406,813,34.48275862068966,-0.352,0.097,0.937
152869,1755602857256,20.91,5.89,-15.81,783,831,784,373,811,33.333333333333336,-0.353,0.098,0.937
152899,1755602857285,20.91,5.91,-15.82,784,826,774,324,816,33.333333333333336,-0.353,0.098,0.938
152958,1755602857344,20.91,5.87,-15.85,778,840,774,401,817,33.333333333333336,-0.352,0.098,0.935
152987,1755602857374,20.86,5.88,-15.87,785,836,770,414,814,34.48275862068966,-0.351,0.098,0.936
153017,1755602857403,20.86,5.86,-15.9,786,836,770,352,820,33.333333333333336,-0.351,0.097,0.938
153046,1755602857433,20.86,5.87,-15.91,784,838,777,322,813,34.48275862068966,-0.351,0.096,0.937
153075,1755602857462,20.87,5.87,-15.93,786,839,780,399,821,34.48275862068966,-0.352,0.095,0.936
153105,1755602857491,20.86,5.84,-15.95,784,834,774,420,820,33.333333333333336,-0.353,0.095,0.936
153163,1755602857550,20.85,5.84,-15.98,786,836,773,329,810,34.48275862068966,-0.353,0.094,0.936
153193,1755602857579,20.85,5.83,-15.99,779,836,776,376,816,33.333333333333336,-0.352,0.094,0.937
153222,1755602857609,20.86,5.82,-16.01,781,828,774,432,814,34.48275862068966,-0.352,0.094,0.937
153252,1755602857638,20.87,5.81,-16.02,784,834,778,399,812,33.333333333333336,-0.353,0.094,0.937
153281,1755602857668,20.86,5.81,-16.02,789,830,774,326,820,34.48275862068966,-0.353,0.094,0.937
153311,1755602857698,20.86,5.81,-16.03,781,832,777,346,821,33.333333333333336,-0.354,0.094,0.938
153340,1755602857727,20.86,5.83,-16.02,785,838,776,420,818,34.48275862068966,-0.353,0.094,0.936
153370,1755602857757,20.86,5.81,-16.02,785,828,773,413,810,33.333333333333336,-0.351,0.094,0.936
153429,1755602857816,20.86,5.78,-16.05,781,827,773,341,821,34.48275862068966,-0.35,0.094,0.937
153459,1755602857845,20.87,5.76,-16.06,784,831,770,402,804,33.333333333333336,-0.351,0.093,0.937
153488,1755602857875,20.85,5.77,-16.07,787,833,772,416,806,34.48275862068966,-0.351,0.093,0.936
153518,1755602857904,20.86,5.75,-16.09,790,830,775,352,814,33.333333333333336,-0.351,0.093,0.936
153547,1755602857933,20.85,5.75,-16.09,786,831,778,321,815,34.48275862068966,-0.352,0.091,0.937
153576,1755602857963,20.84,5.75,-16.09,780,838,765,369,810,34.48275862068966,-0.351,0.092,0.938
153606,1755602857993,20.86,5.76,-16.11,788,846,773,412,808,33.333333333333336,-0.352,0.093,0.937
153636,1755602858022,20.86,5.76,-16.12,786,824,773,385,812,33.333333333333336,-0.353,0.093,0.937
153665,1755602858052,20.88,5.75,-16.13,788,829,774,329,814,34.48275862068966,-0.354,0.091,0.937
153695,1755602858081,20.89,5.75,-16.11,791,824,773,311,813,33.333333333333336,-0.355,0.091,0.937
153724,1755602858111,20.88,5.76,-16.11,786,835,772,409,816,34.48275862068966,-0.354,0.091,0.938
153744,1755602858131,20.87,5.76,-16.1,785,833,774,349,808,50.0,-0.353,0.093,0.938
153774,1755602858160,20.87,5.76,-16.09,787,834,775,423,825,33.333333333333336,-0.353,0.093,0.938
153803,1755602858189,20.87,5.75,-16.09,787,832,776,418,815,34.48275862068966,-0.352,0.093,0.938
153832,1755602858219,20.86,5.74,-16.08,784,834,773,340,814,34.48275862068966,-0.352,0.093,0.939
153862,1755602858248,20.84,5.76,-16.08,788,838,772,355,814,33.333333333333336,-0.352,0.094,0.939
153891,1755602858278,20.85,5.74,-16.08,785,841,777,415,809,34.48275862068966,-0.352,0.094,0.938
153921,1755602858307,20.85,5.73,-16.08,788,835,782,413,811,33.333333333333336,-0.352,0.093,0.938
153950,1755602858337,20.85,5.71,-16.07,786,832,771,362,821,34.48275862068966,-0.353,0.092,0.939
154009,1755602858396,20.88,5.7,-16.06,785,836,775,391,813,34.48275862068966,-0.353,0.092,0.939
154038,1755602858425,20.89,5.71,-16.05,787,832,776,380,808,34.48275862068966,-0.353,0.093,0.939
154068,1755602858454,20.9,5.72,-16.04,786,832,766,379,813,33.333333333333336,-0.351,0.093,0.938
154097,1755602858484,20.89,5.71,-16.51,788,830,770,319,819,34.48275862068966,-0.351,0.093,0.938
154126,1755602858513,20.89,5.71,-16.53,782,831,779,340,815,34.48275862068966,-0.351,0.094,0.938
154156,1755602858542,20.9,5.71,-16.54,782,838,774,420,815,33.333333333333336,-0.353,0.093,0.938
154185,1755602858572,20.89,5.7,-16.54,788,832,780,414,815,34.48275862068966,-0.355,0.092,0.937
154215,1755602858601,20.87,5.71,-16.52,784,839,773,332,811,33.333333333333336,-0.356,0.092,0.937
154244,1755602858631,20.89,5.72,-16.51,780,838,772,351,809,34.48275862068966,-0.355,0.092,0.939
154274,1755602858660,20.89,5.73,-16.49,786,836,779,418,816,33.333333333333336,-0.352,0.093,0.939
154303,1755602858690,20.88,5.73,-16.5,781,832,778,402,814,34.48275862068966,-0.349,0.095,0.938
154333,1755602858719,20.89,5.73,-16.52,786,834,774,336,811,33.333333333333336,-0.35,0.095,0.939
154362,1755602858749,20.88,5.73,-16.53,785,840,775,322,814,34.48275862068966,-0.351,0.094,0.939
154392,1755602858778,20.89,5.74,-16.54,782,830,772,403,811,33.333333333333336,-0.354,0.094,0.938
154421,1755602858808,20.89,5.73,-16.54,788,834,777,425,812,34.48275862068966,-0.355,0.093,0.938
154451,1755602858837,20.89,5.73,-16.53,788,829,773,359,808,33.333333333333336,-0.355,0.094,0.938
154480,1755602858867,20.91,5.72,-16.52,788,832,773,315,821,34.48275862068966,-0.354,0.094,0.939
154510,1755602858896,20.9,5.73,-16.51,788,835,773,362,807,33.333333333333336,-0.353,0.093,0.939
154539,1755602858926,20.91,5.72,-16.51,785,830,776,413,808,34.48275862068966,-0.352,0.094,0.939
154569,1755602858955,20.92,5.71,-16.51,783,840,776,380,809,33.333333333333336,-0.353,0.094,0.939
154598,1755602858985,20.93,5.7,-16.51,779,832,777,333,814,34.48275862068966,-0.353,0.094,0.939
154628,1755602859014,20.94,5.69,-16.51,788,836,769,349,813,33.333333333333336,-0.353,0.094,0.938
154657,1755602859044,20.94,5.67,-16.51,787,830,777,412,813,34.48275862068966,-0.353,0.094,0.938
154687,1755602859074,20.94,5.66,-16.51,782,834,776,406,812,33.333333333333336,-0.353,0.093,0.939
154716,1755602859103,20.95,5.66,-16.52,784,833,779,337,818,34.48275862068966,-0.354,0.093,0.939
154746,1755602859132,20.94,5.68,-16.52,787,835,778,320,811,33.333333333333336,-0.355,0.093,0.939
154775,1755602859162,20.94,5.68,-16.5,784,832,778,386,812,34.48275862068966,-0.355,0.093,0.938
154805,1755602859191,20.94,5.68,-16.51,784,834,772,416,814,33.333333333333336,-0.354,0.094,0.938
154834,1755602859221,20.97,5.67,-16.53,789,846,776,327,809,34.48275862068966,-0.352,0.096,0.938
154863,1755602859250,20.97,5.68,-16.56,788,830,777,306,808,34.48275862068966,-0.352,0.095,0.939
154893,1755602859279,20.99,5.68,-16.6,785,834,770,367,810,33.333333333333336,-0.352,0.095,0.939
154922,1755602859309,21.02,5.7,-16.63,783,833,771,426,807,34.48275862068966,-0.354,0.093,0.938
154952,1755602859339,20.99,5.7,-16.63,785,834,777,385,811,33.333333333333336,-0.356,0.092,0.938
154982,1755602859368,20.99,5.7,-16.62,781,826,769,333,810,33.333333333333336,-0.356,0.092,0.938
155011,1755602859397,20.97,5.7,-16.6,782,832,774,350,815,34.48275862068966,-0.354,0.093,0.938
155040,1755602859427,20.97,5.69,-16.59,785,827,780,436,817,34.48275862068966,-0.353,0.095,0.938
155070,1755602859456,20.94,5.7,-16.59,779,834,775,417,818,33.333333333333336,-0.353,0.094,0.937
155099,1755602859486,20.94,5.69,-16.6,783,825,780,351,811,34.48275862068966,-0.353,0.094,0.938
155129,1755602859516,20.93,5.68,-16.59,785,833,773,349,811,33.333333333333336,-0.354,0.094,0.939
155159,1755602859546,20.94,5.68,-16.59,790,833,774,403,816,33.333333333333336,-0.354,0.094,0.939
155188,1755602859575,20.94,5.66,-16.59,792,830,777,425,813,34.48275862068966,-0.355,0.094,0.939
155218,1755602859604,20.93,5.68,-16.59,781,833,773,390,818,33.333333333333336,-0.354,0.094,0.939
155247,1755602859634,20.96,5.66,-16.61,779,831,776,330,814,34.48275862068966,-0.354,0.094,0.939
155277,1755602859664,20.96,5.67,-16.63,787,827,778,362,810,33.333333333333336,-0.354,0.095,0.939
155306,1755602859693,20.98,5.68,-16.65,788,827,774,423,810,34.48275862068966,-0.354,0.095,0.938
155336,1755602859722,20.96,5.67,-16.68,789,831,774,398,818,33.333333333333336,-0.355,0.094,0.939
155365,1755602859752,20.92,5.69,-16.69,780,837,771,332,815,34.48275862068966,-0.355,0.094,0.94
155395,1755602859782,20.89,5.7,-16.69,784,832,779,330,809,33.333333333333336,-0.356,0.094,0.941
155425,1755602859811,20.87,5.72,-16.68,780,833,778,394,806,33.333333333333336,-0.355,0.094,0.94
155454,1755602859841,20.85,5.73,-16.69,785,835,777,422,805,34.48275862068966,-0.353,0.095,0.939
155484,1755602859871,20.84,5.7,-16.71,787,839,783,372,819,33.333333333333336,-0.352,0.09,0.939
155514,1755602859900,20.86,5.67,-16.74,789,829,769,331,811,33.333333333333336,-0.354,0.088,0.941
155572,1755602859959,20.92,5.68,-16.72,787,832,777,422,819,34.48275862068966,-0.355,0.09,0.941
155602,1755602859988,20.93,5.67,-16.72,787,832,774,389,814,33.333333333333336,-0.355,0.092,0.938
155631,1755602860017,20.94,5.65,-16.73,789,839,767,279,811,34.48275862068966,-0.354,0.094,0.938
155660,1755602860047,20.99,5.62,-16.74,789,833,774,321,809,34.48275862068966,-0.354,0.095,0.939
155690,1755602860076,21.01,5.62,-16.74,787,828,771,416,810,33.333333333333336,-0.353,0.094,0.94
155719,1755602860105,21.01,5.61,-16.74,788,824,773,402,818,34.48275862068966,-0.352,0.094,0.939
155748,1755602860135,21.0,5.6,-16.75,792,822,770,316,814,34.48275862068966,-0.351,0.094,0.939
155778,1755602860164,21.0,5.58,-16.76,789,839,774,287,813,33.333333333333336,-0.352,0.094,0.94
155807,1755602860194,21.0,5.58,-16.76,789,834,772,389,811,34.48275862068966,-0.354,0.093,0.94
155836,1755602860223,20.99,5.58,-16.76,778,827,783,395,802,34.48275862068966,-0.354,0.093,0.939
155866,1755602860253,20.99,5.57,-16.77,786,833,765,340,810,33.333333333333336,-0.354,0.093,0.938
155896,1755602860282,20.99,5.56,-16.79,786,840,769,337,810,33.333333333333336,-0.355,0.092,0.939
155925,1755602860312,20.98,5.57,-16.8,783,835,769,405,809,34.48275862068966,-0.355,0.092,0.94
155984,1755602860370,20.96,5.6,-16.8,782,836,774,390,819,33.333333333333336,-0.355,0.093,0.939
156013,1755602860400,20.96,5.6,-16.81,786,836,774,347,808,34.48275862068966,-0.354,0.093,0.938
156043,1755602860429,20.96,5.58,-16.83,787,837,768,372,818,33.333333333333336,-0.354,0.093,0.938
156101,1755602860488,20.94,5.62,-16.85,786,832,778,410,817,34.48275862068966,-0.354,0.092,0.94
156131,1755602860518,20.95,5.63,-16.86,783,839,772,324,811,33.333333333333336,-0.354,0.093,0.938
156160,1755602860547,20.94,5.62,-16.87,787,832,771,346,818,34.48275862068966,-0.353,0.094,0.937
156190,1755602860576,20.95,5.6,-16.89,783,831,776,422,811,33.333333333333336,-0.353,0.093,0.938
156219,1755602860606,20.95,5.61,-16.89,785,835,778,400,810,34.48275862068966,-0.354,0.093,0.939
156249,1755602860635,20.94,5.62,-16.89,787,832,773,328,821,33.333333333333336,-0.354,0.092,0.939
156278,1755602860665,20.95,5.61,-16.9,783,835,779,343,805,34.48275862068966,-0.353,0.093,0.938
156308,1755602860695,20.96,5.59,-16.91,790,828,773,393,813,33.333333333333336,-0.353,0.093,0.939
156338,1755602860725,20.96,5.59,-16.91,786,834,777,411,815,33.333333333333336,-0.353,0.093,0.939
156397,1755602860783,20.96,5.57,-16.94,785,831,771,325,810,33.333333333333336,-0.353,0.093,0.938
156426,1755602860813,20.96,5.56,-16.95,784,824,773,360,814,34.48275862068966,-0.354,0.093,0.938
156456,1755602860842,20.97,5.56,-16.97,789,832,780,450,805,33.333333333333336,-0.355,0.093,0.938
156485,1755602860871,20.97,5.56,-16.97,787,828,771,408,818,34.48275862068966,-0.356,0.092,0.938
156514,1755602860901,20.96,5.58,-16.97,785,833,770,338,819,34.48275862068966,-0.356,0.091,0.938
156544,1755602860930,20.96,5.57,-16.98,787,839,771,340,812,33.333333333333336,-0.354,0.092,0.938
156573,1755602860960,20.96,5.56,-16.98,787,833,771,421,813,34.48275862068966,-0.354,0.092,0.938
156603,1755602860989,20.94,5.56,-16.98,785,829,769,396,815,33.333333333333336,-0.354,0.092,0.939
156632,1755602861019,20.94,5.56,-16.98,787,833,777,325,817,34.48275862068966,-0.354,0.092,0.939
156662,1755602861048,20.95,5.55,-16.98,785,838,773,322,810,33.333333333333336,-0.353,0.092,0.938
156691,1755602861078,20.95,5.55,-17.0,787,824,782,381,812,34.48275862068966,-0.353,0.092,0.938
156720,1755602861107,20.95,5.54,-17.01,791,842,774,401,813,34.48275862068966,-0.354,0.092,0.938
156750,1755602861137,20.94,5.54,-17.02,785,831,771,356,820,33.333333333333336,-0.356,0.091,0.939
156779,1755602861166,20.95,5.54,-17.01,786,831,779,315,815,34.48275862068966,-0.355,0.091,0.939
156809,1755602861196,20.96,5.55,-17.01,787,832,773,353,823,33.333333333333336,-0.355,0.091,0.938
156868,1755602861254,20.98,5.56,-17.03,785,831,769,405,810,34.48275862068966,-0.354,0.093,0.939
156897,1755602861284,20.97,5.58,-17.03,784,829,772,323,813,34.48275862068966,-0.354,0.093,0.939
156927,1755602861313,20.99,5.59,-17.04,786,836,777,347,805,33.333333333333336,-0.355,0.092,0.938
156956,1755602861343,20.98,5.57,-17.05,782,838,770,430,823,34.48275862068966,-0.355,0.092,0.937
156986,1755602861373,20.96,5.57,-17.05,784,836,769,416,811,33.333333333333336,-0.355,0.092,0.938
157015,1755602861402,20.98,5.58,-17.06,782,835,771,344,807,34.48275862068966,-0.354,0.093,0.939
157074,1755602861461,20.97,5.57,-17.08,784,835,771,418,820,34.48275862068966,-0.353,0.093,0.939
157103,1755602861490,20.96,5.57,-17.1,782,829,773,425,811,34.48275862068966,-0.354,0.093,0.939
157133,1755602861519,20.95,5.58,-17.11,789,831,776,367,812,33.333333333333336,-0.354,0.092,0.939
157162,1755602861549,20.94,5.58,-17.11,786,831,780,331,818,34.48275862068966,-0.354,0.092,0.939
157222,1755602861609,20.92,5.59,-17.11,787,833,773,383,808,33.333333333333336,-0.354,0.092,0.94
157251,1755602861638,20.92,5.61,-17.11,787,825,780,387,813,34.48275862068966,-0.354,0.092,0.94
157281,1755602861667,20.93,5.61,-17.11,787,833,775,318,810,33.333333333333336,-0.354,0.093,0.939
157310,1755602861696,20.95,5.61,-17.11,785,837,782,357,810,34.48275862068966,-0.353,0.094,0.938
157339,1755602861726,20.97,5.6,-17.11,782,832,767,426,816,34.48275862068966,-0.353,0.093,0.938
157369,1755602861755,21.0,5.6,-17.11,788,833,775,407,814,33.333333333333336,-0.353,0.093,0.938
157398,1755602861785,21.01,5.59,-17.09,787,836,770,323,810,34.48275862068966,-0.354,0.093,0.938
157428,1755602861814,21.01,5.58,-17.08,785,833,773,336,809,33.333333333333336,-0.355,0.093,0.938
157457,1755602861844,21.01,5.57,-17.07,787,832,774,406,810,34.48275862068966,-0.353,0.093,0.937
157477,1755602861864,21.01,5.57,-17.07,788,825,777,325,813,50.0,-0.353,0.093,0.938
157507,1755602861893,21.02,5.58,-17.07,781,830,782,415,809,33.333333333333336,-0.353,0.093,0.939
157566,1755602861953,21.01,5.58,-17.08,781,839,770,343,812,33.333333333333336,-0.355,0.092,0.938
157595,1755602861982,21.0,5.59,-17.07,786,831,773,328,806,34.48275862068966,-0.356,0.093,0.937
157625,1755602862011,20.99,5.59,-17.06,790,839,777,391,818,33.333333333333336,-0.355,0.093,0.937
157654,1755602862041,20.99,5.58,-17.06,789,833,775,413,810,34.48275862068966,-0.354,0.093,0.937
157683,1755602862070,20.97,5.58,-17.05,789,840,774,360,801,34.48275862068966,-0.354,0.093,0.937
157713,1755602862100,20.97,5.58,-17.04,782,834,778,320,812,33.333333333333336,-0.353,0.093,0.938
157743,1755602862129,20.98,5.59,-17.03,787,823,771,344,810,33.333333333333336,-0.353,0.094,0.938
157772,1755602862159,20.99,5.59,-17.03,788,827,773,416,807,34.48275862068966,-0.353,0.094,0.937
157802,1755602862188,20.98,5.59,-17.03,787,836,773,405,815,33.333333333333336,-0.353,0.094,0.936
157861,1755602862247,20.95,5.59,-17.02,787,835,771,331,811,33.333333333333336,-0.353,0.094,0.938
157890,1755602862277,20.96,5.59,-17.03,786,836,775,408,809,34.48275862068966,-0.353,0.094,0.938
157920,1755602862307,20.92,5.61,-17.03,785,827,771,411,808,33.333333333333336,-0.352,0.094,0.937
157950,1755602862336,20.91,5.59,-17.04,783,826,767,363,809,33.333333333333336,-0.352,0.094,0.937
157979,1755602862366,20.9,5.58,-17.06,788,830,773,319,810,34.48275862068966,-0.353,0.094,0.938
158008,1755602862395,20.9,5.58,-17.07,789,840,775,359,815,34.48275862068966,-0.353,0.094,0.939
158067,1755602862454,20.92,5.61,-17.1,781,837,771,391,814,34.48275862068966,-0.352,0.093,0.937
158126,1755602862513,20.94,6.03,-17.14,787,830,772,354,810,34.48275862068966,-0.353,0.093,0.939
158156,1755602862542,20.93,6.05,-17.14,788,827,775,424,810,33.333333333333336,-0.354,0.093,0.938
158185,1755602862572,20.93,6.05,-17.14,784,836,775,420,813,34.48275862068966,-0.353,0.093,0.937
158215,1755602862601,20.92,6.03,-17.14,786,835,774,333,808,33.333333333333336,-0.352,0.094,0.937
158244,1755602862631,20.93,6.0,-17.17,788,839,781,324,810,34.48275862068966,-0.352,0.094,0.937
158273,1755602862660,20.92,6.01,-17.18,788,829,770,404,808,34.48275862068966,-0.352,0.094,0.939
158303,1755602862690,20.94,6.01,-17.2,789,824,768,411,822,33.333333333333336,-0.352,0.093,0.939
158333,1755602862719,20.92,6.02,-17.21,785,833,768,352,817,33.333333333333336,-0.353,0.094,0.938
158362,1755602862749,20.89,6.01,-17.21,787,830,774,325,815,34.48275862068966,-0.352,0.094,0.938
158392,1755602862779,20.9,5.99,-17.21,788,836,775,357,816,33.333333333333336,-0.352,0.094,0.938
158422,1755602862808,20.88,5.96,-17.22,785,833,774,413,813,33.333333333333336,-0.353,0.094,0.94
158451,1755602862838,20.89,5.95,-17.22,786,830,778,388,815,34.48275862068966,-0.354,0.094,0.94
158480,1755602862867,20.88,5.95,-17.22,788,839,770,334,808,34.48275862068966,-0.354,0.093,0.94
158510,1755602862897,20.88,5.92,-17.22,788,836,778,343,810,33.333333333333336,-0.354,0.094,0.94
