timestamp_ms,recv_timestamp_ms,pitch,roll,yaw,flex1,flex2,flex3,flex4,flex5,sampling_hz,accel_x,accel_y,accel_z
44883,1755608209084,74.78,-55.22,-16.53,794,776,856,357,908,33.333333333333336,-0.969,-0.223,0.147
44913,1755608209086,74.79,-55.27,-16.53,791,777,857,328,907,33.333333333333336,-0.967,-0.223,0.148
44943,1755608209089,74.76,-55.29,-16.51,795,770,857,408,907,33.333333333333336,-0.966,-0.221,0.15
44973,1755608209091,74.74,-55.27,-16.51,795,773,852,400,905,33.333333333333336,-0.968,-0.219,0.15
44993,1755608209093,74.73,-55.27,-16.51,793,772,856,381,909,50.0,-0.968,-0.22,0.15
45023,1755608209096,74.73,-55.28,-16.51,793,772,856,410,905,33.333333333333336,-0.968,-0.222,0.151
45043,1755608209097,74.71,-55.27,-16.5,797,767,859,358,907,50.0,-0.966,-0.221,0.151
45073,1755608209100,74.7,-55.24,-16.5,793,773,855,398,910,33.333333333333336,-0.968,-0.22,0.152
45094,1755608209102,74.71,-55.22,-16.5,793,779,857,356,918,47.61904761904762,-0.969,-0.221,0.153
45123,1755608209104,74.69,-55.21,-16.5,796,774,858,376,908,34.48275862068966,-0.967,-0.221,0.15
45153,1755608209106,74.66,-55.23,-16.49,795,775,854,370,908,33.333333333333336,-0.967,-0.222,0.147
45183,1755608209108,74.68,-55.25,-16.49,794,776,859,322,908,33.333333333333336,-0.968,-0.222,0.15
45213,1755608209110,74.66,-55.23,-16.48,794,773,859,350,906,33.333333333333336,-0.966,-0.22,0.153
45243,1755608209112,74.65,-55.18,-16.48,797,776,854,403,907,33.333333333333336,-0.967,-0.22,0.154
45273,1755608209114,74.65,-55.16,-16.46,794,773,859,406,907,33.333333333333336,-0.968,-0.22,0.152
45293,1755608209116,74.67,-55.16,-16.45,793,775,855,393,908,50.0,-0.967,-0.22,0.15
45323,1755608209118,74.65,-55.17,-16.46,794,777,853,410,901,33.333333333333336,-0.966,-0.22,0.15
45353,1755608209120,74.67,-55.19,-16.47,793,774,857,366,905,33.333333333333336,-0.967,-0.221,0.15
45383,1755608209122,74.68,-55.18,-16.45,795,775,859,336,909,33.333333333333336,-0.966,-0.219,0.151
45403,1755608209124,74.66,-55.18,-16.45,797,770,852,393,907,50.0,-0.966,-0.217,0.15
45433,1755608209126,74.63,-55.2,-16.44,790,768,850,348,908,33.333333333333336,-0.968,-0.218,0.149
45453,1755608209127,74.63,-55.21,-16.44,797,771,857,404,906,50.0,-0.968,-0.219,0.15
45483,1755608209129,74.63,-55.21,-16.44,794,774,859,357,909,33.333333333333336,-0.966,-0.218,0.152
45503,1755608209131,74.62,-55.2,-16.45,790,768,866,417,909,50.0,-0.966,-0.217,0.151
45533,1755608209133,74.59,-55.21,-16.46,793,765,857,363,912,33.333333333333336,-0.967,-0.218,0.152
45583,1755608209137,74.6,-55.19,-16.45,794,768,855,351,906,33.333333333333336,-0.968,-0.22,0.152
45613,1755608209139,74.59,-55.22,-16.47,796,773,860,371,918,33.333333333333336,-0.966,-0.22,0.152
45643,1755608209140,74.61,-55.2,-16.47,796,775,856,437,912,33.333333333333336,-0.966,-0.22,0.154
45673,1755608209143,74.64,-55.18,-16.47,793,772,857,420,910,33.333333333333336,-0.965,-0.218,0.155
45702,1755608209145,74.66,-55.16,-16.47,797,777,850,368,909,34.48275862068966,-0.966,-0.218,0.154
45722,1755608209147,74.66,-55.15,-16.47,792,769,859,404,907,50.0,-0.968,-0.219,0.151
45752,1755608209159,74.68,-55.18,-16.5,792,775,861,353,915,33.333333333333336,-0.967,-0.219,0.15
45782,1755608209189,74.67,-55.21,-16.52,791,777,858,292,906,33.333333333333336,-0.969,-0.219,0.15
45812,1755608209219,74.65,-55.21,-16.52,796,769,857,346,905,33.333333333333336,-0.97,-0.22,0.152
45842,1755608209249,74.66,-55.18,-16.51,796,774,856,359,909,33.333333333333336,-0.967,-0.221,0.156
45862,1755608209269,74.68,-55.13,-16.52,790,773,855,333,909,50.0,-0.965,-0.22,0.156
45892,1755608209299,74.69,-55.1,-16.53,790,769,856,409,906,33.333333333333336,-0.966,-0.22,0.154
45922,1755608209329,74.68,-55.1,-16.52,794,771,854,357,910,33.333333333333336,-0.967,-0.221,0.151
45951,1755608209359,74.69,-55.12,-16.53,793,766,859,324,906,34.48275862068966,-0.966,-0.22,0.15
45981,1755608209388,74.66,-55.14,-16.54,788,775,867,315,907,33.333333333333336,-0.966,-0.219,0.152
46011,1755608209418,74.62,-55.11,-16.52,796,777,858,382,908,33.333333333333336,-0.968,-0.22,0.154
46041,1755608209448,74.65,-55.1,-16.52,792,781,852,407,908,33.333333333333336,-0.968,-0.221,0.154
46071,1755608209478,74.64,-55.11,-16.51,796,766,861,393,902,33.333333333333336,-0.967,-0.22,0.153
46091,1755608209498,74.62,-55.11,-16.51,791,771,849,394,908,50.0,-0.968,-0.221,0.152
46121,1755608209528,74.61,-55.13,-16.5,795,771,853,379,912,33.333333333333336,-0.968,-0.221,0.15
46151,1755608209558,74.58,-55.15,-16.49,796,771,856,334,906,33.333333333333336,-0.966,-0.22,0.151
46180,1755608209588,74.56,-55.13,-16.5,795,773,858,328,909,34.48275862068966,-0.968,-0.219,0.154
46201,1755608209608,74.56,-55.13,-16.5,797,768,855,369,908,47.61904761904762,-0.968,-0.22,0.156
46221,1755608209628,74.57,-55.1,-16.5,793,773,859,433,909,50.0,-0.968,-0.221,0.156
46250,1755608209658,74.58,-55.09,-16.5,794,769,861,365,900,34.48275862068966,-0.969,-0.222,0.154
46280,1755608209688,74.56,-55.09,-16.5,789,774,854,354,908,33.333333333333336,-0.966,-0.22,0.152
46310,1755608209717,74.6,-55.1,-16.52,792,777,856,390,906,33.333333333333336,-0.968,-0.22,0.154
46340,1755608209747,74.58,-55.08,-16.51,796,779,858,407,906,33.333333333333336,-0.969,-0.22,0.155
46370,1755608209777,74.6,-55.05,-16.51,795,768,857,366,908,33.333333333333336,-0.968,-0.221,0.156
46400,1755608209807,74.62,-55.03,-16.51,790,774,853,329,906,33.333333333333336,-0.968,-0.221,0.155
46429,1755608209837,74.64,-55.03,-16.52,795,773,861,354,910,34.48275862068966,-0.966,-0.22,0.152
46489,1755608209896,74.63,-55.1,-16.56,795,766,858,408,903,33.333333333333336,-0.97,-0.222,0.151
46519,1755608209927,74.66,-55.1,-16.57,791,771,860,375,909,33.333333333333336,-0.968,-0.222,0.153
46569,1755608209977,75.13,-55.13,-16.57,797,772,853,335,909,33.333333333333336,-0.967,-0.222,0.152
46589,1755608209997,75.1,-55.15,-16.57,787,778,860,384,910,50.0,-0.968,-0.223,0.15
46610,1755608210017,75.09,-55.18,-16.56,797,776,857,367,905,47.61904761904762,-0.97,-0.223,0.149
46630,1755608210037,75.09,-55.21,-16.55,791,777,853,321,907,50.0,-0.968,-0.222,0.149
46660,1755608210067,75.05,-55.25,-16.56,795,777,853,378,905,33.333333333333336,-0.968,-0.221,0.15
46680,1755608210087,75.01,-55.25,-16.55,790,771,856,349,905,50.0,-0.968,-0.221,0.151
46710,1755608210117,74.98,-55.25,-16.54,794,772,860,400,903,33.333333333333336,-0.969,-0.221,0.153
46730,1755608210137,74.99,-55.22,-16.53,794,773,854,341,900,50.0,-0.969,-0.222,0.155
46760,1755608210167,74.96,-55.17,-16.5,796,771,854,404,905,33.333333333333336,-0.967,-0.221,0.154
46789,1755608210197,74.95,-55.16,-16.51,791,775,851,409,906,34.48275862068966,-0.965,-0.221,0.152
46819,1755608210227,74.93,-55.18,-16.51,792,771,861,376,901,33.333333333333336,-0.966,-0.221,0.151
46849,1755608210256,74.92,-55.18,-16.5,792,774,857,341,904,33.333333333333336,-0.966,-0.221,0.153
46879,1755608210286,74.93,-55.16,-16.5,795,780,860,368,909,33.333333333333336,-0.965,-0.219,0.154
46909,1755608210316,74.94,-55.18,-16.53,793,772,860,407,906,33.333333333333336,-0.966,-0.218,0.155
46939,1755608210346,74.96,-55.15,-16.55,793,773,851,414,905,33.333333333333336,-0.966,-0.219,0.155
46969,1755608210376,74.98,-55.09,-16.57,794,776,862,370,901,33.333333333333336,-0.966,-0.219,0.154
46998,1755608210406,74.95,-55.08,-16.59,794,770,857,341,907,34.48275862068966,-0.965,-0.219,0.151
47019,1755608210426,74.94,-55.09,-16.61,797,770,854,394,903,47.61904761904762,-0.968,-0.221,0.15
47048,1755608210456,74.94,-55.12,-16.61,801,773,861,358,902,34.48275862068966,-0.967,-0.222,0.15
47078,1755608210486,74.97,-55.13,-16.64,795,776,855,357,908,33.333333333333336,-0.967,-0.222,0.152
47108,1755608210515,74.93,-55.14,-16.65,793,776,856,416,904,33.333333333333336,-0.966,-0.222,0.152
47138,1755608210545,74.94,-55.14,-16.67,793,776,857,401,907,33.333333333333336,-0.968,-0.223,0.152
47168,1755608210575,74.93,-55.15,-16.67,796,771,856,353,909,33.333333333333336,-0.968,-0.225,0.151
47198,1755608210605,74.91,-55.18,-16.66,792,776,855,344,909,33.333333333333336,-0.968,-0.226,0.15
47227,1755608210635,74.89,-55.2,-16.67,795,766,853,384,906,34.48275862068966,-0.966,-0.225,0.149
47257,1755608210665,74.87,-55.19,-16.65,791,775,858,420,903,33.333333333333336,-0.967,-0.224,0.152
47278,1755608210685,74.86,-55.19,-16.64,798,774,850,341,902,47.61904761904762,-0.967,-0.224,0.152
47308,1755608210715,74.85,-55.17,-16.62,795,767,854,396,910,33.333333333333336,-0.966,-0.225,0.152
47338,1755608210746,74.8,-55.19,-16.58,792,771,862,396,912,33.333333333333336,-0.967,-0.225,0.151
47358,1755608210766,74.77,-55.2,-16.57,795,772,851,373,910,50.0,-0.967,-0.223,0.149
47378,1755608210786,74.76,-55.24,-16.55,793,770,857,335,906,50.0,-0.969,-0.223,0.15
47408,1755608210815,74.73,-55.27,-16.54,796,773,849,398,908,33.333333333333336,-0.967,-0.221,0.152
47438,1755608210845,74.66,-55.24,-16.54,796,774,857,376,906,33.333333333333336,-0.966,-0.219,0.153
47468,1755608210875,74.61,-55.23,-16.52,794,776,855,333,903,33.333333333333336,-0.969,-0.221,0.154
47498,1755608210905,74.62,-55.19,-16.51,796,772,853,289,906,33.333333333333336,-0.966,-0.222,0.154
47518,1755608210926,74.63,-55.2,-16.52,789,772,859,360,899,50.0,-0.962,-0.221,0.152
47538,1755608210945,74.63,-55.22,-16.54,797,770,855,419,909,50.0,-0.964,-0.221,0.152
47568,1755608210975,74.62,-55.23,-16.55,795,772,859,372,913,33.333333333333336,-0.966,-0.221,0.153
47598,1755608211005,74.6,-55.2,-16.56,791,778,859,346,909,33.333333333333336,-0.965,-0.221,0.154
47628,1755608211035,74.6,-55.17,-16.57,796,776,859,367,908,33.333333333333336,-0.965,-0.223,0.155
47657,1755608211065,74.63,-55.17,-16.57,800,769,855,423,909,34.48275862068966,-0.965,-0.223,0.155
47687,1755608211094,74.64,-55.17,-16.59,788,770,853,358,910,33.333333333333336,-0.966,-0.221,0.153
47717,1755608211124,74.57,-55.15,-16.57,791,777,858,288,909,33.333333333333336,-0.967,-0.221,0.152
47747,1755608211154,74.54,-55.18,-16.58,794,772,851,321,905,33.333333333333336,-0.965,-0.223,0.152
47777,1755608211184,74.5,-55.17,-16.58,792,773,857,367,904,33.333333333333336,-0.967,-0.224,0.155
47807,1755608211214,74.51,-55.12,-16.57,794,774,856,405,910,33.333333333333336,-0.969,-0.223,0.157
47836,1755608211244,74.48,-55.09,-16.56,792,772,863,378,908,34.48275862068966,-0.966,-0.222,0.158
47866,1755608211274,74.49,-55.07,-16.57,794,772,857,349,910,33.333333333333336,-0.967,-0.221,0.157
47896,1755608211304,74.49,-55.06,-16.57,792,775,857,343,910,33.333333333333336,-0.968,-0.222,0.157
47926,1755608211334,74.48,-55.05,-16.55,796,777,856,390,907,33.333333333333336,-0.967,-0.225,0.157
47956,1755608211364,74.45,-55.05,-16.51,797,775,858,399,905,33.333333333333336,-0.967,-0.225,0.158
47976,1755608211384,74.5,-55.03,-16.51,796,771,857,352,908,50.0,-0.968,-0.223,0.159
48006,1755608211414,74.56,-55.02,-16.51,794,772,858,399,910,33.333333333333336,-0.965,-0.221,0.158
48066,1755608211473,74.54,-55.03,-16.49,794,774,858,343,910,33.333333333333336,-0.967,-0.22,0.155
48096,1755608211503,74.58,-55.03,-16.49,795,773,871,306,906,33.333333333333336,-0.967,-0.22,0.156
48126,1755608211533,74.58,-55.01,-16.49,795,773,855,391,907,33.333333333333336,-0.964,-0.219,0.156
48156,1755608211563,74.52,-55.01,-16.51,798,772,857,409,906,33.333333333333336,-0.965,-0.219,0.156
48186,1755608211593,74.57,-55.0,-16.5,796,774,855,383,903,33.333333333333336,-0.969,-0.221,0.157
48215,1755608211624,74.56,-54.99,-16.48,791,772,852,338,905,34.48275862068966,-0.967,-0.22,0.156
48236,1755608211644,74.52,-54.97,-16.48,792,774,859,417,908,47.61904761904762,-0.967,-0.22,0.153
48256,1755608211664,74.48,-54.98,-16.47,794,770,859,409,908,50.0,-0.967,-0.22,0.153
48276,1755608211684,74.48,-54.98,-16.48,798,775,849,366,908,50.0,-0.965,-0.219,0.154
48306,1755608211714,74.46,-54.95,-16.52,793,772,853,407,906,33.333333333333336,-0.964,-0.22,0.156
48326,1755608211734,74.42,-54.94,-16.53,793,774,856,367,903,50.0,-0.965,-0.221,0.155
48347,1755608211754,74.4,-54.95,-16.54,788,771,857,331,905,47.61904761904762,-0.968,-0.223,0.154
48376,1755608211784,74.42,-54.94,-16.53,794,776,853,398,908,34.48275862068966,-0.968,-0.223,0.157
48406,1755608211814,74.41,-54.91,-16.53,790,771,853,413,907,33.333333333333336,-0.965,-0.222,0.158
48436,1755608211844,74.39,-54.9,-16.53,795,775,855,384,909,33.333333333333336,-0.967,-0.224,0.158
48466,1755608211874,74.46,-54.87,-16.51,795,773,854,331,910,33.333333333333336,-0.969,-0.225,0.159
48486,1755608211894,74.5,-54.84,-16.5,795,775,860,413,909,50.0,-0.965,-0.221,0.157
48516,1755608211924,74.48,-54.82,-16.5,793,771,856,348,906,33.333333333333336,-0.965,-0.219,0.156
48546,1755608211953,74.47,-54.84,-16.5,791,766,859,354,906,33.333333333333336,-0.967,-0.22,0.154
48576,1755608211983,74.47,-54.84,-16.5,794,769,856,391,908,33.333333333333336,-0.968,-0.221,0.155
48606,1755608212013,74.45,-54.9,-16.46,796,773,852,410,908,33.333333333333336,-0.968,-0.221,0.155
48635,1755608212043,74.45,-54.86,-16.45,791,766,855,393,907,34.48275862068966,-0.967,-0.22,0.156
48655,1755608212063,74.47,-54.86,-16.44,791,773,858,420,908,50.0,-0.966,-0.219,0.157
48685,1755608212093,74.46,-54.84,-16.45,795,775,859,382,907,33.333333333333336,-0.968,-0.218,0.156
48715,1755608212123,74.47,-54.82,-16.44,792,777,851,328,909,33.333333333333336,-0.967,-0.22,0.156
48745,1755608212152,74.51,-54.81,-16.44,796,777,852,338,904,33.333333333333336,-0.965,-0.22,0.157
48775,1755608212182,74.48,-54.8,-16.45,795,774,858,415,907,33.333333333333336,-0.968,-0.22,0.157
48795,1755608212202,74.49,-54.78,-16.46,796,771,856,357,903,50.0,-0.97,-0.22,0.156
48825,1755608212232,74.5,-54.78,-16.46,796,779,865,405,903,33.333333333333336,-0.966,-0.22,0.155
48845,1755608212252,74.5,-54.78,-16.47,796,773,853,335,907,50.0,-0.965,-0.221,0.155
48875,1755608212282,74.47,-54.75,-16.45,794,770,861,399,912,33.333333333333336,-0.967,-0.222,0.155
48904,1755608212312,74.52,-54.74,-16.45,798,773,858,409,913,34.48275862068966,-0.966,-0.221,0.156
48934,1755608212342,74.5,-54.75,-16.46,791,774,860,366,899,33.333333333333336,-0.964,-0.22,0.155
48964,1755608212372,74.5,-54.73,-16.46,793,771,855,323,909,33.333333333333336,-0.967,-0.222,0.155
48994,1755608212402,74.5,-54.74,-16.46,791,774,856,370,910,33.333333333333336,-0.967,-0.222,0.154
49054,1755608212462,74.48,-54.71,-16.46,799,780,857,375,903,33.333333333333336,-0.966,-0.219,0.154
49074,1755608212482,74.51,-54.72,-16.48,796,771,854,385,905,50.0,-0.966,-0.221,0.155
49104,1755608212511,74.5,-54.73,-16.48,788,778,859,385,906,33.333333333333336,-0.965,-0.222,0.154
49134,1755608212541,74.52,-54.73,-16.5,795,775,855,354,907,33.333333333333336,-0.966,-0.221,0.153
49164,1755608212571,74.49,-54.75,-16.49,794,773,849,322,905,33.333333333333336,-0.967,-0.22,0.153
49194,1755608212601,74.47,-54.77,-16.49,796,775,856,372,907,33.333333333333336,-0.967,-0.221,0.155
49223,1755608212631,74.47,-54.77,-16.5,792,774,855,420,904,34.48275862068966,-0.965,-0.222,0.155
49253,1755608212661,74.51,-54.77,-16.52,796,769,861,389,908,33.333333333333336,-0.966,-0.223,0.156
49273,1755608212681,74.51,-54.79,-16.51,791,773,853,394,909,50.0,-0.967,-0.223,0.155
49303,1755608212711,74.53,-54.76,-16.5,795,776,849,385,910,33.333333333333336,-0.967,-0.222,0.154
49323,1755608212731,74.53,-54.78,-16.51,793,777,857,379,909,50.0,-0.965,-0.22,0.151
49353,1755608212761,74.52,-54.81,-16.52,793,770,856,370,910,33.333333333333336,-0.966,-0.221,0.151
49383,1755608212791,74.95,-54.84,-16.55,794,773,850,341,906,33.333333333333336,-0.967,-0.222,0.151
49403,1755608212811,74.95,-54.86,-16.56,798,780,854,393,912,50.0,-0.966,-0.223,0.154
49423,1755608212831,74.95,-54.88,-16.57,792,769,854,379,902,50.0,-0.968,-0.222,0.156
49453,1755608212861,74.95,-54.85,-16.57,797,776,859,396,908,33.333333333333336,-0.968,-0.221,0.157
49483,1755608212891,74.87,-54.85,-16.53,796,775,852,338,913,33.333333333333336,-0.966,-0.223,0.156
49513,1755608212920,74.9,-54.87,-16.52,794,773,857,327,907,33.333333333333336,-0.967,-0.225,0.155
49543,1755608212950,74.87,-54.89,-16.5,791,771,857,388,909,33.333333333333336,-0.966,-0.226,0.156
49573,1755608212980,74.89,-54.84,-16.47,797,772,857,418,907,33.333333333333336,-0.969,-0.224,0.157
49603,1755608213010,74.91,-54.8,-16.43,798,769,854,394,911,33.333333333333336,-0.968,-0.223,0.156
49633,1755608213040,74.94,-54.79,-16.42,791,769,856,347,910,33.333333333333336,-0.967,-0.221,0.155
49663,1755608213070,74.92,-54.76,-16.43,794,777,850,356,906,33.333333333333336,-0.968,-0.22,0.153
49713,1755608213120,74.91,-54.81,-16.46,790,778,854,376,908,33.333333333333336,-0.967,-0.221,0.153
49742,1755608213150,74.89,-54.79,-16.48,797,779,857,403,906,34.48275862068966,-0.967,-0.219,0.156
49772,1755608213180,74.92,-54.75,-16.5,795,774,854,422,904,33.333333333333336,-0.968,-0.22,0.158
49802,1755608213210,74.97,-54.73,-16.5,790,772,858,398,904,33.333333333333336,-0.967,-0.221,0.156
49832,1755608213240,74.97,-54.73,-16.51,794,770,859,328,900,33.333333333333336,-0.968,-0.221,0.153
49852,1755608213259,74.97,-54.74,-16.52,790,770,853,409,901,50.0,-0.968,-0.222,0.151
49882,1755608213290,74.95,-54.75,-16.53,792,769,854,360,909,33.333333333333336,-0.968,-0.222,0.15
49902,1755608213309,74.93,-54.76,-16.52,793,774,864,402,907,50.0,-0.968,-0.223,0.152
49932,1755608213340,74.94,-54.76,-16.52,790,773,862,310,907,33.333333333333336,-0.968,-0.222,0.153
49952,1755608213359,74.92,-54.75,-16.52,790,777,853,387,907,50.0,-0.966,-0.22,0.153
49982,1755608213389,74.89,-54.72,-16.51,797,782,857,341,905,33.333333333333336,-0.968,-0.221,0.153
50012,1755608213419,74.89,-54.74,-16.51,796,774,860,348,909,33.333333333333336,-0.968,-0.223,0.153
50041,1755608213449,74.89,-54.75,-16.51,793,779,853,415,906,34.48275862068966,-0.966,-0.223,0.153
50071,1755608213479,74.88,-54.77,-16.51,796,767,863,401,921,33.333333333333336,-0.968,-0.223,0.152
50091,1755608213499,74.87,-54.8,-16.5,797,779,852,392,907,50.0,-0.968,-0.222,0.152
50121,1755608213529,74.84,-54.78,-16.49,791,773,855,391,910,33.333333333333336,-0.967,-0.221,0.153
50151,1755608213558,74.83,-54.79,-16.51,795,777,851,358,910,33.333333333333336,-0.965,-0.22,0.154
50181,1755608213589,74.83,-54.78,-16.5,789,778,857,330,905,33.333333333333336,-0.968,-0.221,0.155
50201,1755608213608,74.78,-54.79,-16.49,794,778,857,391,910,50.0,-0.968,-0.223,0.153
50231,1755608213638,74.81,-54.78,-16.49,790,773,859,366,907,33.333333333333336,-0.968,-0.224,0.153
50251,1755608213658,74.81,-54.81,-16.48,797,765,856,392,910,50.0,-0.968,-0.224,0.154
50281,1755608213688,74.84,-54.84,-16.47,796,770,856,329,909,33.333333333333336,-0.97,-0.223,0.155
50311,1755608213718,74.81,-54.82,-16.42,795,771,856,374,904,33.333333333333336,-0.971,-0.222,0.156
50341,1755608213748,74.83,-54.78,-16.4,797,773,855,413,907,33.333333333333336,-0.969,-0.219,0.156
50361,1755608213768,74.82,-54.75,-16.39,795,780,858,345,905,50.0,-0.965,-0.218,0.155
50390,1755608213798,74.79,-54.75,-16.38,798,778,857,411,903,34.48275862068966,-0.964,-0.221,0.153
50420,1755608213828,74.84,-54.81,-16.4,795,774,857,392,905,33.333333333333336,-0.967,-0.222,0.152
50440,1755608213848,74.84,-54.85,-16.4,795,768,857,343,906,50.0,-0.966,-0.222,0.151
50470,1755608213878,74.85,-54.89,-16.4,789,774,858,376,910,33.333333333333336,-0.968,-0.221,0.154
50500,1755608213907,74.8,-54.9,-16.37,794,776,859,332,902,33.333333333333336,-0.968,-0.22,0.155
50530,1755608213937,74.81,-54.89,-16.37,796,774,852,335,907,33.333333333333336,-0.968,-0.22,0.155
50560,1755608213967,74.79,-54.85,-16.37,789,773,854,372,906,33.333333333333336,-0.965,-0.219,0.154
50590,1755608213997,74.76,-54.86,-16.39,795,773,857,425,904,33.333333333333336,-0.967,-0.22,0.152
50620,1755608214027,74.74,-54.88,-16.37,794,776,857,408,905,33.333333333333336,-0.968,-0.222,0.153
50649,1755608214057,74.77,-54.84,-16.36,791,770,855,349,911,34.48275862068966,-0.966,-0.22,0.156
50679,1755608214087,74.79,-54.83,-16.38,791,775,856,357,908,33.333333333333336,-0.967,-0.218,0.155
50709,1755608214117,74.79,-54.86,-16.38,793,773,859,406,906,33.333333333333336,-0.966,-0.22,0.154
50739,1755608214146,74.81,-54.85,-16.39,791,772,854,435,906,33.333333333333336,-0.966,-0.221,0.152
50769,1755608214177,74.76,-54.86,-16.38,797,774,859,403,906,33.333333333333336,-0.966,-0.222,0.151
50789,1755608214197,74.75,-54.89,-16.38,795,777,855,384,900,50.0,-0.966,-0.222,0.151
50819,1755608214226,74.73,-54.91,-16.37,793,772,858,384,906,33.333333333333336,-0.968,-0.22,0.154
50849,1755608214257,74.71,-54.9,-16.38,794,772,854,336,905,33.333333333333336,-0.967,-0.219,0.154
50869,1755608214277,74.71,-54.89,-16.38,791,765,856,418,909,50.0,-0.966,-0.219,0.155
50920,1755608214327,74.68,-54.86,-16.4,795,766,856,394,905,33.333333333333336,-0.968,-0.22,0.155
50949,1755608214357,74.71,-54.86,-16.39,797,777,854,339,909,34.48275862068966,-0.969,-0.222,0.154
50979,1755608214387,74.67,-54.87,-16.38,795,765,851,341,908,33.333333333333336,-0.966,-0.221,0.152
51009,1755608214417,74.65,-54.87,-16.4,795,773,861,395,903,33.333333333333336,-0.965,-0.221,0.152
51039,1755608214447,74.66,-54.87,-16.39,795,775,855,416,906,33.333333333333336,-0.968,-0.222,0.154
51059,1755608214467,74.66,-54.86,-16.38,795,779,855,354,906,50.0,-0.968,-0.222,0.156
51089,1755608214497,74.7,-54.81,-16.36,790,774,850,400,908,33.333333333333336,-0.969,-0.222,0.157
51119,1755608214527,74.69,-54.77,-16.32,796,772,855,382,906,33.333333333333336,-0.966,-0.221,0.156
51139,1755608214547,74.69,-54.77,-16.33,798,772,855,380,904,50.0,-0.96,-0.221,0.152
51169,1755608214577,74.68,-54.82,-16.34,794,776,859,373,908,33.333333333333336,-0.967,-0.221,0.151
51189,1755608214597,74.67,-54.85,-16.33,798,773,857,376,910,50.0,-0.971,-0.222,0.152
51219,1755608214626,74.72,-54.82,-16.31,797,777,860,370,907,33.333333333333336,-0.966,-0.22,0.156
51249,1755608214656,74.71,-54.77,-16.32,794,777,860,328,910,33.333333333333336,-0.964,-0.218,0.156
51279,1755608214686,74.68,-54.77,-16.31,791,771,851,324,907,33.333333333333336,-0.969,-0.219,0.153
51299,1755608214706,74.68,-54.79,-16.3,793,766,854,368,909,50.0,-0.97,-0.221,0.151
51329,1755608214736,74.69,-54.8,-16.3,793,775,854,361,904,33.333333333333336,-0.967,-0.219,0.153
51359,1755608214766,74.66,-54.8,-16.31,795,775,856,407,904,33.333333333333336,-0.968,-0.219,0.154
51388,1755608214796,74.69,-54.82,-16.32,796,774,855,423,908,34.48275862068966,-0.97,-0.22,0.153
51408,1755608214817,74.7,-54.83,-16.31,796,768,854,379,907,50.0,-0.969,-0.219,0.153
51429,1755608214836,74.72,-54.82,-16.31,795,771,855,337,901,47.61904761904762,-0.969,-0.218,0.154
51459,1755608214866,74.72,-54.77,-16.3,794,775,847,380,912,33.333333333333336,-0.969,-0.219,0.156
51489,1755608214896,74.7,-54.78,-16.32,795,773,851,419,905,33.333333333333336,-0.966,-0.219,0.152
51518,1755608214926,74.68,-54.83,-16.33,795,768,852,380,902,34.48275862068966,-0.969,-0.221,0.151
51548,1755608214956,74.72,-54.87,-16.34,794,771,857,325,908,33.333333333333336,-0.971,-0.221,0.152
51578,1755608214986,74.69,-54.84,-16.33,792,766,856,355,909,33.333333333333336,-0.967,-0.219,0.154
51608,1755608215016,74.69,-54.8,-16.34,795,774,854,405,907,33.333333333333336,-0.969,-0.218,0.154
51638,1755608215046,74.68,-54.82,-16.33,793,767,856,418,905,33.333333333333336,-0.97,-0.221,0.152
51658,1755608215066,74.69,-54.83,-16.33,792,772,852,373,904,50.0,-0.968,-0.222,0.15
51688,1755608215095,74.67,-54.86,-16.33,796,770,856,402,906,33.333333333333336,-0.966,-0.221,0.15
51718,1755608215125,74.65,-54.86,-16.34,793,767,865,380,905,33.333333333333336,-0.967,-0.219,0.152
51748,1755608215155,74.66,-54.84,-16.34,796,768,856,341,905,33.333333333333336,-0.97,-0.22,0.154
51807,1755608215215,74.67,-54.83,-16.34,795,774,858,413,899,33.333333333333336,-0.965,-0.219,0.153
51837,1755608215245,74.65,-54.84,-16.35,797,774,861,405,903,33.333333333333336,-0.968,-0.22,0.152
51897,1755608215304,74.62,-54.87,-16.34,796,773,853,329,906,33.333333333333336,-0.966,-0.221,0.153
51927,1755608215334,74.62,-54.86,-16.35,796,778,861,358,905,33.333333333333336,-0.967,-0.22,0.155
51957,1755608215364,74.64,-54.88,-16.35,795,774,852,403,905,33.333333333333336,-0.969,-0.221,0.155
51986,1755608215394,74.66,-54.83,-16.34,789,778,859,403,902,34.48275862068966,-0.967,-0.219,0.155
52016,1755608215424,74.62,-54.8,-16.36,792,768,854,342,906,33.333333333333336,-0.965,-0.218,0.154
52046,1755608215454,74.58,-54.83,-16.36,791,777,854,344,906,33.333333333333336,-0.968,-0.22,0.152
52076,1755608215483,74.6,-54.84,-16.36,791,774,861,371,904,33.333333333333336,-0.967,-0.221,0.152
52106,1755608215513,74.61,-54.84,-16.36,797,771,856,406,901,33.333333333333336,-0.966,-0.221,0.156
52136,1755608215543,74.6,-54.82,-16.35,793,778,859,383,903,33.333333333333336,-0.968,-0.221,0.156
52166,1755608215573,74.62,-54.8,-16.34,790,774,856,343,902,33.333333333333336,-0.969,-0.22,0.155
52195,1755608215603,74.65,-54.8,-16.34,795,775,855,297,906,34.48275862068966,-0.967,-0.221,0.154
52215,1755608215623,74.64,-54.81,-16.34,797,772,860,364,903,50.0,-0.965,-0.22,0.151
52245,1755608215653,74.59,-54.84,-16.34,790,769,858,353,907,33.333333333333336,-0.967,-0.219,0.151
52275,1755608215683,74.55,-54.84,-16.34,795,770,855,390,903,33.333333333333336,-0.966,-0.218,0.151
52305,1755608215712,74.5,-54.87,-16.36,797,771,857,387,907,33.333333333333336,-0.966,-0.219,0.152
52335,1755608215742,74.48,-54.87,-16.36,791,770,855,345,911,33.333333333333336,-0.967,-0.222,0.154
52364,1755608215772,74.47,-54.86,-16.35,791,773,860,320,905,34.48275862068966,-0.967,-0.223,0.156
52394,1755608215802,74.46,-54.83,-16.34,793,771,857,339,904,33.333333333333336,-0.966,-0.222,0.158
52415,1755608215822,74.47,-54.8,-16.34,794,769,856,315,911,47.61904761904762,-0.965,-0.221,0.159
52435,1755608215842,74.48,-54.77,-16.34,795,779,858,395,903,50.0,-0.964,-0.219,0.158
52465,1755608215872,74.51,-54.75,-16.35,794,774,850,332,910,33.333333333333336,-0.967,-0.22,0.157
52494,1755608215902,74.52,-54.75,-16.34,794,769,854,350,908,34.48275862068966,-0.967,-0.221,0.155
52524,1755608215932,74.51,-54.74,-16.33,796,771,849,408,902,33.333333333333336,-0.964,-0.219,0.155
52544,1755608215952,74.52,-54.72,-16.34,790,770,859,342,902,50.0,-0.966,-0.217,0.156
52574,1755608215982,74.49,-54.7,-16.34,794,773,859,397,906,33.333333333333336,-0.966,-0.218,0.155
52604,1755608216011,74.5,-54.69,-16.34,794,775,854,393,904,33.333333333333336,-0.968,-0.221,0.155
52634,1755608216041,74.49,-54.7,-16.33,791,774,859,352,909,33.333333333333336,-0.966,-0.222,0.157
52664,1755608216072,74.51,-54.68,-16.34,795,775,855,312,908,33.333333333333336,-0.965,-0.221,0.157
52684,1755608216092,74.49,-54.67,-16.34,793,776,858,393,909,50.0,-0.966,-0.22,0.156
52704,1755608216112,74.5,-54.67,-16.35,795,777,853,426,905,50.0,-0.968,-0.22,0.156
52734,1755608216141,74.52,-54.67,-16.36,793,776,854,359,906,33.333333333333336,-0.968,-0.22,0.156
52764,1755608216171,74.52,-54.65,-16.36,794,776,854,341,913,33.333333333333336,-0.966,-0.22,0.156
52794,1755608216201,74.49,-54.64,-16.37,791,772,860,359,906,33.333333333333336,-0.966,-0.22,0.153
52824,1755608216231,74.51,-54.69,-16.37,795,772,855,416,906,33.333333333333336,-0.969,-0.222,0.154
52853,1755608216261,74.48,-54.68,-16.35,795,770,850,398,903,34.48275862068966,-0.965,-0.221,0.156
52883,1755608216291,74.45,-54.66,-16.37,793,772,852,344,903,33.333333333333336,-0.966,-0.22,0.157
52913,1755608216320,74.48,-54.65,-16.37,791,778,851,319,905,33.333333333333336,-0.969,-0.221,0.157
52943,1755608216351,74.51,-54.62,-16.36,788,773,855,362,908,33.333333333333336,-0.967,-0.222,0.156
52963,1755608216370,74.47,-54.62,-16.34,790,774,856,356,906,50.0,-0.964,-0.222,0.153
52993,1755608216401,74.43,-54.68,-16.36,795,770,853,370,907,33.333333333333336,-0.966,-0.223,0.151
53013,1755608216420,74.43,-54.71,-16.34,797,772,848,345,905,50.0,-0.971,-0.223,0.154
53043,1755608216450,74.49,-54.72,-16.34,795,771,853,381,903,33.333333333333336,-0.969,-0.223,0.158
53073,1755608216480,74.5,-54.67,-16.31,795,769,854,435,905,33.333333333333336,-0.966,-0.222,0.158
53102,1755608216510,74.51,-54.64,-16.3,794,778,854,374,905,34.48275862068966,-0.966,-0.221,0.154
53132,1755608216540,74.51,-54.68,-16.29,795,773,857,339,906,33.333333333333336,-0.968,-0.222,0.153
53162,1755608216570,74.47,-54.68,-16.26,793,771,857,326,907,33.333333333333336,-0.967,-0.221,0.152
