timestamp_ms,recv_timestamp_ms,pitch,roll,yaw,flex1,flex2,flex3,flex4,flex5,sampling_hz,accel_x,accel_y,accel_z
230474,1755604523927,76.25,-135.16,-91.66,778,934,900,386,922,33.333333333333336,-0.969,-0.179,-0.187
230504,1755604523929,76.25,-135.2,-91.68,776,930,894,355,925,33.333333333333336,-0.97,-0.18,-0.189
230533,1755604523932,76.22,-135.23,-91.68,778,935,900,363,931,34.48275862068966,-0.972,-0.179,-0.19
230563,1755604523933,76.19,-135.26,-91.69,778,927,907,418,921,33.333333333333336,-0.972,-0.178,-0.191
230593,1755604523936,76.16,-135.28,-91.68,778,932,889,408,930,33.333333333333336,-0.97,-0.179,-0.191
230622,1755604523938,76.16,-135.3,-91.69,781,909,904,372,926,34.48275862068966,-0.969,-0.18,-0.189
230652,1755604523941,76.15,-135.3,-91.71,777,922,894,352,931,33.333333333333336,-0.968,-0.18,-0.187
230681,1755604523943,76.14,-135.32,-91.72,780,930,907,377,934,34.48275862068966,-0.97,-0.18,-0.189
230711,1755604523944,76.13,-135.32,-91.72,779,942,888,401,923,33.333333333333336,-0.972,-0.179,-0.191
230741,1755604523947,76.11,-135.35,-91.71,780,925,892,386,933,33.333333333333336,-0.97,-0.179,-0.191
230770,1755604523949,76.11,-135.38,-91.73,777,929,878,361,930,34.48275862068966,-0.969,-0.179,-0.189
230800,1755604523951,76.1,-135.41,-91.75,780,928,892,367,929,33.333333333333336,-0.969,-0.18,-0.19
230830,1755604523952,76.08,-135.43,-91.76,779,921,890,404,927,33.333333333333336,-0.97,-0.18,-0.19
230859,1755604523954,76.06,-135.44,-91.76,774,927,894,389,942,34.48275862068966,-0.971,-0.179,-0.189
230880,1755604523956,76.04,-135.45,-91.76,778,929,904,365,930,47.61904761904762,-0.969,-0.18,-0.189
230909,1755604523958,76.02,-135.46,-91.78,780,922,890,395,939,34.48275862068966,-0.968,-0.179,-0.188
230939,1755604523961,76.03,-135.47,-91.79,778,931,895,366,934,33.333333333333336,-0.969,-0.18,-0.189
230989,1755604523964,76.0,-135.49,-91.81,773,933,890,365,918,50.0,-0.97,-0.179,-0.189
231018,1755604523967,75.99,-135.49,-91.83,773,916,897,349,934,34.48275862068966,-0.967,-0.179,-0.189
231048,1755604523969,75.98,-135.48,-91.86,778,922,878,383,932,33.333333333333336,-0.968,-0.18,-0.188
231077,1755604523971,75.96,-135.5,-91.88,780,925,900,410,933,34.48275862068966,-0.97,-0.178,-0.189
231107,1755604523973,75.94,-135.53,-91.9,777,920,885,384,930,33.333333333333336,-0.971,-0.179,-0.19
231137,1755604523975,75.93,-135.56,-91.9,781,928,899,336,927,33.333333333333336,-0.972,-0.181,-0.19
231166,1755604523977,75.92,-135.56,-91.9,774,922,890,347,931,34.48275862068966,-0.97,-0.181,-0.188
231196,1755604523979,75.93,-135.57,-91.91,780,928,890,398,937,33.333333333333336,-0.968,-0.181,-0.189
231226,1755604523981,75.92,-135.57,-91.92,779,928,891,398,926,33.333333333333336,-0.969,-0.181,-0.189
231256,1755604523983,75.92,-135.6,-91.93,772,938,905,356,924,33.333333333333336,-0.97,-0.181,-0.191
231285,1755604523985,75.9,-135.6,-91.93,781,924,889,352,929,34.48275862068966,-0.97,-0.181,-0.19
231315,1755604523988,75.88,-135.61,-91.93,778,916,908,388,921,33.333333333333336,-0.969,-0.181,-0.189
231345,1755604523990,75.9,-135.6,-91.94,781,932,888,410,929,33.333333333333336,-0.97,-0.181,-0.189
231374,1755604523992,75.87,-135.62,-91.96,777,924,897,394,930,34.48275862068966,-0.971,-0.181,-0.191
231405,1755604523994,75.85,-135.67,-91.98,776,920,893,350,919,32.25806451612903,-0.97,-0.18,-0.191
231434,1755604523996,75.84,-135.73,-91.99,773,925,891,347,928,34.48275862068966,-0.972,-0.179,-0.19
231464,1755604523998,75.81,-135.74,-91.99,781,928,895,403,930,33.333333333333336,-0.972,-0.179,-0.19
231493,1755604524000,75.81,-135.76,-91.99,777,939,896,397,923,34.48275862068966,-0.969,-0.18,-0.187
231523,1755604524002,75.81,-135.76,-91.99,780,933,902,369,926,33.333333333333336,-0.969,-0.181,-0.187
231552,1755604524004,75.8,-135.76,-91.99,778,933,898,358,928,34.48275862068966,-0.97,-0.179,-0.189
231582,1755604524006,75.8,-135.77,-92.0,774,927,885,376,921,33.333333333333336,-0.971,-0.178,-0.191
231611,1755604524008,75.78,-135.82,-92.01,775,925,878,406,929,34.48275862068966,-0.97,-0.178,-0.191
231641,1755604524011,75.77,-135.84,-92.02,780,930,894,389,933,33.333333333333336,-0.968,-0.179,-0.19
231671,1755604524012,75.79,-135.85,-92.04,777,936,905,336,943,33.333333333333336,-0.97,-0.178,-0.19
231701,1755604524015,75.76,-135.87,-92.04,775,940,908,349,916,33.333333333333336,-0.971,-0.18,-0.191
231730,1755604524017,75.79,-135.9,-92.04,780,926,896,358,931,34.48275862068966,-0.972,-0.181,-0.189
231760,1755604524019,75.78,-135.91,-92.03,778,924,882,399,925,33.333333333333336,-0.971,-0.179,-0.189
231790,1755604524021,75.79,-135.92,-92.05,776,930,888,360,928,33.333333333333336,-0.969,-0.178,-0.188
231819,1755604524024,75.78,-135.94,-92.07,779,947,894,346,932,34.48275862068966,-0.97,-0.179,-0.189
231849,1755604524026,75.79,-135.96,-92.08,781,940,893,375,922,33.333333333333336,-0.972,-0.179,-0.19
231878,1755604524028,75.79,-135.99,-92.08,779,922,899,405,927,34.48275862068966,-0.971,-0.178,-0.192
231908,1755604524030,75.79,-136.01,-92.09,778,936,883,395,932,33.333333333333336,-0.968,-0.178,-0.192
231937,1755604524032,75.76,-136.02,-92.1,779,924,899,344,925,34.48275862068966,-0.963,-0.178,-0.192
231967,1755604524034,75.77,-136.07,-92.11,778,931,896,368,929,33.333333333333336,-0.966,-0.178,-0.192
231996,1755604524036,75.76,-136.1,-92.12,778,935,898,403,933,34.48275862068966,-0.967,-0.178,-0.193
232026,1755604524038,75.74,-136.1,-92.12,778,916,903,407,929,33.333333333333336,-0.968,-0.179,-0.192
232056,1755604524040,75.73,-136.13,-92.13,777,939,891,377,933,33.333333333333336,-0.967,-0.178,-0.191
232086,1755604524042,75.73,-136.13,-92.13,780,934,890,352,922,33.333333333333336,-0.967,-0.178,-0.191
232115,1755604524056,75.74,-136.14,-92.14,772,929,891,370,916,34.48275862068966,-0.967,-0.179,-0.19
232145,1755604524086,75.76,-136.14,-92.15,779,925,902,412,937,33.333333333333336,-0.967,-0.178,-0.192
232175,1755604524115,75.73,-136.15,-92.16,779,928,901,386,925,33.333333333333336,-0.968,-0.178,-0.194
232234,1755604524174,75.71,-136.18,-92.18,777,925,894,344,931,33.333333333333336,-0.969,-0.178,-0.191
232264,1755604524204,75.71,-136.2,-92.19,776,923,887,391,924,33.333333333333336,-0.968,-0.179,-0.193
232294,1755604524234,75.68,-136.22,-92.2,780,921,886,388,925,33.333333333333336,-0.969,-0.178,-0.191
232323,1755604524264,75.67,-136.22,-92.21,780,925,900,384,932,34.48275862068966,-0.97,-0.177,-0.193
232353,1755604524294,75.65,-136.23,-92.22,776,921,901,351,934,33.333333333333336,-0.969,-0.178,-0.193
232383,1755604524324,75.64,-136.26,-92.23,780,928,898,359,916,33.333333333333336,-0.97,-0.179,-0.19
232413,1755604524353,75.67,-136.27,-92.24,782,932,900,389,926,33.333333333333336,-0.969,-0.178,-0.191
232442,1755604524383,75.66,-136.28,-92.25,780,924,894,402,931,34.48275862068966,-0.97,-0.179,-0.192
232472,1755604524412,75.67,-136.3,-92.26,779,937,896,351,926,33.333333333333336,-0.97,-0.179,-0.192
232501,1755604524442,75.65,-136.33,-92.26,782,923,896,336,930,34.48275862068966,-0.971,-0.178,-0.192
232531,1755604524471,75.67,-136.33,-92.27,776,918,903,385,928,33.333333333333336,-0.969,-0.177,-0.19
232560,1755604524501,75.68,-136.32,-92.28,781,929,894,418,926,34.48275862068966,-0.967,-0.178,-0.192
232590,1755604524531,75.66,-136.34,-92.3,774,919,909,386,930,33.333333333333336,-0.97,-0.179,-0.193
232620,1755604524560,75.66,-136.36,-92.3,776,925,911,301,927,33.333333333333336,-0.972,-0.179,-0.192
232649,1755604524590,75.65,-136.36,-92.3,780,928,885,342,926,34.48275862068966,-0.972,-0.179,-0.193
232679,1755604524619,75.65,-136.37,-92.3,774,929,899,393,936,33.333333333333336,-0.97,-0.178,-0.192
232708,1755604524649,75.66,-136.39,-92.31,778,913,892,407,928,34.48275862068966,-0.969,-0.177,-0.192
232738,1755604524678,75.66,-136.39,-92.32,783,923,881,313,925,33.333333333333336,-0.97,-0.178,-0.193
232768,1755604524708,75.66,-136.42,-92.33,780,929,894,322,925,33.333333333333336,-0.972,-0.178,-0.194
232797,1755604524738,75.66,-136.44,-92.34,775,932,899,379,923,34.48275862068966,-0.971,-0.178,-0.194
232827,1755604524768,75.65,-136.45,-92.35,782,934,876,413,930,33.333333333333336,-0.97,-0.179,-0.193
232847,1755604524788,75.63,-136.45,-92.35,781,930,901,373,927,50.0,-0.969,-0.179,-0.193
232936,1755604524877,75.61,-136.48,-92.35,781,928,900,335,929,33.333333333333336,-0.97,-0.178,-0.192
232965,1755604524905,75.61,-136.5,-92.37,775,927,876,367,931,34.48275862068966,-0.968,-0.178,-0.194
233024,1755604524965,75.57,-136.59,-92.39,775,935,900,409,934,34.48275862068966,-0.972,-0.178,-0.194
233054,1755604524995,75.55,-136.64,-92.4,780,932,892,318,926,33.333333333333336,-0.971,-0.177,-0.194
233084,1755604525024,75.52,-136.67,-92.4,776,941,903,328,940,33.333333333333336,-0.969,-0.178,-0.194
233113,1755604525054,75.51,-136.73,-92.41,775,923,894,389,920,34.48275862068966,-0.969,-0.178,-0.193
233143,1755604525083,75.52,-136.76,-92.41,779,933,879,412,929,33.333333333333336,-0.969,-0.177,-0.195
233172,1755604525113,75.52,-136.8,-92.42,779,930,892,374,924,34.48275862068966,-0.971,-0.178,-0.196
233202,1755604525142,75.47,-136.82,-92.43,771,929,895,343,938,33.333333333333336,-0.971,-0.177,-0.195
233231,1755604525172,75.43,-136.83,-92.42,780,938,876,381,935,34.48275862068966,-0.969,-0.178,-0.195
233261,1755604525201,75.42,-136.84,-92.43,779,929,896,432,929,33.333333333333336,-0.968,-0.178,-0.194
233291,1755604525232,75.42,-136.87,-92.44,774,932,898,412,928,33.333333333333336,-0.969,-0.177,-0.191
233311,1755604525251,75.41,-136.89,-92.45,779,928,889,411,932,50.0,-0.969,-0.177,-0.191
233340,1755604525281,75.4,-136.87,-92.45,779,935,883,382,933,34.48275862068966,-0.97,-0.177,-0.191
233370,1755604525311,75.39,-136.89,-92.46,780,918,889,346,936,33.333333333333336,-0.97,-0.177,-0.193
233400,1755604525340,75.36,-136.92,-92.46,774,928,890,353,925,33.333333333333336,-0.969,-0.176,-0.193
233429,1755604525370,75.33,-136.91,-92.46,777,924,892,406,925,34.48275862068966,-0.971,-0.175,-0.193
233459,1755604525400,75.33,-136.92,-92.47,782,928,890,411,929,33.333333333333336,-0.97,-0.176,-0.192
233489,1755604525430,75.34,-136.92,-92.49,777,932,889,377,935,33.333333333333336,-0.971,-0.177,-0.191
233519,1755604525459,75.32,-136.87,-92.49,775,922,894,324,926,33.333333333333336,-0.971,-0.177,-0.191
233548,1755604525489,75.33,-136.83,-92.49,779,926,897,362,925,34.48275862068966,-0.97,-0.176,-0.19
233578,1755604525518,75.35,-136.82,-92.51,778,921,882,406,934,33.333333333333336,-0.969,-0.176,-0.191
233607,1755604525547,75.36,-136.81,-92.52,775,922,891,390,926,34.48275862068966,-0.97,-0.176,-0.192
233666,1755604525607,75.38,-136.79,-92.54,781,924,892,345,932,34.48275862068966,-0.97,-0.176,-0.191
233725,1755604525666,75.39,-136.8,-92.58,775,937,905,393,934,34.48275862068966,-0.968,-0.175,-0.191
233755,1755604525695,75.4,-136.81,-92.6,780,927,897,347,935,33.333333333333336,-0.97,-0.176,-0.194
233784,1755604525725,75.38,-136.85,-92.61,776,925,885,342,929,34.48275862068966,-0.972,-0.177,-0.194
233814,1755604525754,75.39,-136.87,-92.62,775,927,893,376,930,33.333333333333336,-0.971,-0.177,-0.192
233843,1755604525784,75.38,-136.88,-92.63,777,922,894,403,925,34.48275862068966,-0.97,-0.177,-0.192
233873,1755604525813,75.4,-136.88,-92.64,777,923,896,381,932,33.333333333333336,-0.97,-0.177,-0.192
233902,1755604525843,75.36,-136.88,-92.65,777,928,915,341,926,34.48275862068966,-0.969,-0.178,-0.193
233932,1755604525873,75.38,-136.84,-92.64,778,920,888,343,926,33.333333333333336,-0.97,-0.177,-0.192
233962,1755604525902,75.38,-136.84,-92.65,778,930,900,407,926,33.333333333333336,-0.971,-0.178,-0.192
233991,1755604525932,75.38,-136.88,-92.66,777,924,896,414,932,34.48275862068966,-0.97,-0.177,-0.193
234021,1755604525961,75.39,-136.9,-92.67,776,917,898,345,934,33.333333333333336,-0.969,-0.176,-0.189
234050,1755604525991,75.42,-136.92,-92.69,778,932,894,354,933,34.48275862068966,-0.969,-0.176,-0.191
234080,1755604526020,75.41,-136.92,-92.7,778,922,892,413,931,33.333333333333336,-0.969,-0.177,-0.193
234109,1755604526050,75.41,-136.93,-92.72,780,921,889,418,933,34.48275862068966,-0.971,-0.177,-0.192
234168,1755604526109,75.36,-136.96,-92.71,779,925,901,350,934,34.48275862068966,-0.971,-0.179,-0.192
234198,1755604526139,75.36,-136.94,-92.71,780,926,896,372,926,33.333333333333336,-0.968,-0.179,-0.19
234227,1755604526168,75.38,-136.91,-92.72,775,927,894,424,930,34.48275862068966,-0.97,-0.178,-0.189
234257,1755604526197,75.38,-136.91,-92.73,778,935,889,399,929,33.333333333333336,-0.971,-0.178,-0.191
234316,1755604526256,75.35,-136.94,-92.71,776,931,888,367,931,33.333333333333336,-0.973,-0.176,-0.194
234345,1755604526286,75.39,-136.97,-92.72,772,920,901,404,927,34.48275862068966,-0.971,-0.175,-0.19
234375,1755604526316,75.42,-136.99,-92.74,779,918,894,403,922,33.333333333333336,-0.97,-0.175,-0.19
234405,1755604526345,75.43,-136.97,-92.76,779,923,886,355,929,33.333333333333336,-0.971,-0.175,-0.189
234434,1755604526375,75.42,-136.99,-92.79,780,934,893,344,919,34.48275862068966,-0.972,-0.175,-0.19
234464,1755604526404,75.47,-136.99,-92.79,782,936,888,388,926,33.333333333333336,-0.972,-0.176,-0.191
234493,1755604526434,75.45,-137.01,-92.8,777,918,895,413,932,34.48275862068966,-0.972,-0.175,-0.192
234523,1755604526463,75.47,-137.01,-92.83,776,926,904,399,935,33.333333333333336,-0.97,-0.175,-0.19
234553,1755604526493,75.48,-137.0,-92.84,779,924,902,332,934,33.333333333333336,-0.971,-0.177,-0.19
234582,1755604526522,75.52,-137.0,-92.85,779,910,891,370,930,34.48275862068966,-0.971,-0.177,-0.192
234612,1755604526552,75.51,-137.0,-92.85,775,920,893,416,927,33.333333333333336,-0.971,-0.177,-0.193
234641,1755604526582,75.55,-137.01,-92.86,779,922,899,407,930,34.48275862068966,-0.972,-0.177,-0.193
234671,1755604526611,75.53,-137.06,-92.87,783,933,899,350,927,33.333333333333336,-0.972,-0.175,-0.194
234700,1755604526641,75.56,-137.15,-92.88,776,928,887,352,927,34.48275862068966,-0.97,-0.175,-0.192
234730,1755604526670,75.58,-137.17,-92.89,779,929,890,388,927,33.333333333333336,-0.97,-0.175,-0.193
234759,1755604526700,75.58,-137.17,-92.9,777,924,898,387,930,34.48275862068966,-0.969,-0.174,-0.193
234789,1755604526729,75.56,-137.18,-92.92,775,931,906,362,935,33.333333333333336,-0.97,-0.175,-0.194
234818,1755604526759,75.57,-137.2,-92.92,777,920,899,348,924,34.48275862068966,-0.97,-0.176,-0.194
234848,1755604526789,75.55,-137.22,-92.93,778,930,888,378,921,33.333333333333336,-0.97,-0.175,-0.195
234878,1755604526818,75.53,-137.21,-92.94,774,908,900,430,931,33.333333333333336,-0.967,-0.175,-0.196
234907,1755604526849,75.52,-137.23,-92.95,784,933,886,364,930,34.48275862068966,-0.969,-0.176,-0.195
234928,1755604526868,75.52,-137.24,-92.96,782,926,908,391,927,47.61904761904762,-0.97,-0.177,-0.194
234957,1755604526898,75.5,-137.24,-92.96,780,924,895,380,929,34.48275862068966,-0.97,-0.176,-0.195
234987,1755604526927,75.46,-137.23,-92.96,776,922,895,340,938,33.333333333333336,-0.969,-0.176,-0.195
235017,1755604526957,75.48,-137.23,-92.97,777,924,903,349,924,33.333333333333336,-0.969,-0.177,-0.195
235046,1755604526987,75.5,-137.26,-92.97,778,934,906,402,924,34.48275862068966,-0.97,-0.176,-0.196
235076,1755604527016,75.48,-137.27,-92.98,777,921,898,408,931,33.333333333333336,-0.97,-0.176,-0.195
235105,1755604527045,75.47,-137.25,-92.99,782,928,891,358,929,34.48275862068966,-0.968,-0.175,-0.194
235135,1755604527075,75.49,-137.25,-93.02,776,924,885,339,926,33.333333333333336,-0.968,-0.175,-0.195
235164,1755604527104,75.48,-137.27,-93.03,783,920,893,364,929,34.48275862068966,-0.97,-0.176,-0.195
235194,1755604527134,75.51,-137.29,-93.03,775,929,892,425,929,33.333333333333336,-0.971,-0.176,-0.195
235223,1755604527164,75.52,-137.3,-93.03,779,943,898,406,930,34.48275862068966,-0.969,-0.175,-0.194
235253,1755604527194,75.53,-137.29,-93.05,771,930,883,345,917,33.333333333333336,-0.969,-0.174,-0.192
235283,1755604527223,75.53,-137.27,-93.08,777,928,900,344,931,33.333333333333336,-0.969,-0.175,-0.195
235312,1755604527253,75.54,-137.29,-93.09,774,922,893,395,921,34.48275862068966,-0.971,-0.176,-0.197
235401,1755604527342,75.47,-137.28,-93.12,773,935,886,339,935,33.333333333333336,-0.966,-0.175,-0.195
235431,1755604527372,75.44,-137.31,-93.14,779,931,888,379,930,33.333333333333336,-0.966,-0.175,-0.195
235480,1755604527421,75.44,-137.36,-93.16,777,926,876,388,933,34.48275862068966,-0.97,-0.177,-0.197
235510,1755604527451,75.43,-137.39,-93.16,777,924,896,420,918,33.333333333333336,-0.97,-0.176,-0.197
235540,1755604527481,75.43,-137.37,-93.17,778,926,877,406,923,33.333333333333336,-0.969,-0.176,-0.195
235570,1755604527511,75.45,-137.39,-93.19,782,932,896,365,927,33.333333333333336,-0.969,-0.176,-0.194
235600,1755604527541,75.46,-137.39,-93.2,782,930,891,349,932,33.333333333333336,-0.971,-0.177,-0.194
235620,1755604527561,75.47,-137.38,-93.2,779,927,887,375,931,50.0,-0.972,-0.177,-0.194
235650,1755604527590,75.49,-137.41,-93.21,780,930,898,364,926,33.333333333333336,-0.97,-0.177,-0.196
235679,1755604527620,75.51,-137.42,-93.21,775,930,896,408,928,34.48275862068966,-0.969,-0.177,-0.196
235709,1755604527649,75.47,-137.45,-93.23,781,924,891,410,926,33.333333333333336,-0.97,-0.178,-0.196
235738,1755604527679,75.47,-137.45,-93.22,777,918,900,375,926,34.48275862068966,-0.97,-0.177,-0.196
235768,1755604527709,75.47,-137.47,-93.22,777,922,895,339,934,33.333333333333336,-0.97,-0.176,-0.197
235798,1755604527738,75.46,-137.47,-93.21,780,929,893,352,920,33.333333333333336,-0.969,-0.176,-0.196
235827,1755604527768,75.46,-137.46,-93.23,776,928,898,403,920,34.48275862068966,-0.968,-0.175,-0.195
235857,1755604527797,75.44,-137.47,-93.25,775,918,894,405,931,33.333333333333336,-0.968,-0.176,-0.196
235886,1755604527827,75.46,-137.46,-93.26,781,934,894,354,932,34.48275862068966,-0.969,-0.175,-0.197
235916,1755604527856,75.46,-137.48,-93.27,779,921,896,351,922,33.333333333333336,-0.968,-0.175,-0.197
235945,1755604527886,75.44,-137.47,-93.28,773,926,890,413,923,34.48275862068966,-0.968,-0.176,-0.197
235975,1755604527916,75.46,-137.48,-93.3,779,930,899,400,934,33.333333333333336,-0.968,-0.175,-0.197
236005,1755604527945,75.47,-137.47,-93.3,778,925,885,361,922,33.333333333333336,-0.969,-0.176,-0.198
236034,1755604527976,75.44,-137.48,-93.31,777,927,891,343,937,34.48275862068966,-0.968,-0.175,-0.197
236055,1755604527995,75.45,-137.5,-93.32,774,919,900,401,928,47.61904761904762,-0.968,-0.174,-0.196
236084,1755604528025,75.45,-137.51,-93.34,778,929,902,360,925,34.48275862068966,-0.967,-0.175,-0.197
236114,1755604528055,75.45,-137.49,-93.37,778,923,899,387,921,33.333333333333336,-0.967,-0.175,-0.197
236144,1755604528085,75.44,-137.52,-93.39,779,918,897,400,933,33.333333333333336,-0.97,-0.176,-0.198
236203,1755604528144,75.4,-137.56,-93.41,779,933,892,342,927,34.48275862068966,-0.969,-0.175,-0.198
236233,1755604528173,75.4,-137.59,-93.42,785,921,892,347,932,33.333333333333336,-0.969,-0.175,-0.198
236262,1755604528203,75.43,-137.64,-93.45,777,919,901,402,930,34.48275862068966,-0.968,-0.175,-0.199
236292,1755604528232,75.43,-137.68,-93.47,783,929,890,387,929,33.333333333333336,-0.969,-0.176,-0.198
236321,1755604528262,75.44,-137.65,-93.48,778,919,893,313,926,34.48275862068966,-0.969,-0.177,-0.197
236351,1755604528291,75.44,-137.63,-93.49,777,941,890,338,929,33.333333333333336,-0.967,-0.177,-0.198
236380,1755604528321,75.43,-137.63,-93.51,779,919,888,384,925,34.48275862068966,-0.967,-0.178,-0.199
236410,1755604528350,75.42,-137.64,-93.53,779,928,903,406,930,33.333333333333336,-0.971,-0.177,-0.199
236439,1755604528380,75.43,-137.64,-93.52,780,921,897,390,924,34.48275862068966,-0.971,-0.178,-0.2
236469,1755604528409,75.4,-137.66,-93.52,777,928,907,337,921,33.333333333333336,-0.967,-0.178,-0.2
236498,1755604528439,75.41,-137.65,-93.53,781,919,897,318,925,34.48275862068966,-0.968,-0.178,-0.198
236528,1755604528468,75.41,-137.64,-93.55,775,922,899,397,928,33.333333333333336,-0.97,-0.177,-0.199
236558,1755604528498,75.39,-137.68,-93.55,778,930,890,360,927,33.333333333333336,-0.97,-0.178,-0.201
236587,1755604528528,75.37,-137.69,-93.54,773,935,892,327,923,34.48275862068966,-0.97,-0.178,-0.2
236617,1755604528558,75.39,-137.67,-93.54,775,932,889,326,929,33.333333333333336,-0.967,-0.178,-0.198
236647,1755604528587,75.39,-137.66,-93.55,777,923,902,377,929,33.333333333333336,-0.965,-0.177,-0.197
236677,1755604528617,75.39,-137.66,-93.57,778,930,889,409,929,33.333333333333336,-0.968,-0.177,-0.199
236736,1755604528677,75.38,-137.7,-93.57,778,923,906,352,941,33.333333333333336,-0.968,-0.177,-0.2
236766,1755604528706,75.37,-137.72,-93.58,780,926,893,341,933,33.333333333333336,-0.967,-0.177,-0.199
236795,1755604528736,75.36,-137.71,-93.6,775,933,885,409,931,34.48275862068966,-0.968,-0.177,-0.197
236825,1755604528766,75.35,-137.7,-93.6,781,938,897,409,923,33.333333333333336,-0.968,-0.177,-0.199
236855,1755604528795,75.36,-137.71,-93.61,779,916,896,355,927,33.333333333333336,-0.968,-0.177,-0.2
236884,1755604528825,75.34,-137.73,-93.62,778,935,883,337,932,34.48275862068966,-0.968,-0.177,-0.2
236914,1755604528854,75.34,-137.72,-93.63,775,921,900,373,933,33.333333333333336,-0.968,-0.176,-0.201
236943,1755604528884,75.34,-137.74,-93.64,777,930,897,408,927,34.48275862068966,-0.969,-0.176,-0.201
236973,1755604528913,75.33,-137.77,-93.64,782,930,898,386,926,33.333333333333336,-0.969,-0.178,-0.2
237002,1755604528943,75.35,-137.77,-93.65,780,929,886,340,933,34.48275862068966,-0.969,-0.177,-0.199
237032,1755604528973,75.34,-137.78,-93.66,778,923,898,349,926,33.333333333333336,-0.969,-0.177,-0.199
237062,1755604529002,75.34,-137.8,-93.68,781,933,900,373,926,33.333333333333336,-0.97,-0.176,-0.2
237092,1755604529032,75.33,-137.81,-93.69,778,926,881,381,929,33.333333333333336,-0.969,-0.176,-0.202
237121,1755604529062,75.31,-137.83,-93.71,780,916,892,337,930,34.48275862068966,-0.968,-0.177,-0.202
237151,1755604529092,75.31,-137.85,-93.72,777,929,882,331,934,33.333333333333336,-0.969,-0.177,-0.201
237181,1755604529121,75.33,-137.89,-93.73,780,928,909,363,931,33.333333333333336,-0.969,-0.177,-0.2
237210,1755604529151,75.33,-137.92,-93.74,778,926,891,416,928,34.48275862068966,-0.969,-0.177,-0.2
237240,1755604529180,75.32,-137.9,-93.75,772,922,883,392,931,33.333333333333336,-0.969,-0.176,-0.201
237269,1755604529210,75.26,-137.91,-93.78,774,934,888,336,922,34.48275862068966,-0.969,-0.176,-0.202
237299,1755604529240,75.23,-137.93,-93.8,774,914,903,334,932,33.333333333333336,-0.969,-0.176,-0.199
237329,1755604529269,75.26,-137.98,-93.84,773,937,880,411,923,33.333333333333336,-0.965,-0.177,-0.199
237358,1755604529299,75.28,-137.98,-93.86,773,922,891,424,932,34.48275862068966,-0.968,-0.18,-0.201
237388,1755604529329,75.23,-137.99,-93.84,776,929,887,363,922,33.333333333333336,-0.971,-0.18,-0.203
237418,1755604529358,75.21,-138.03,-93.83,786,924,907,357,927,33.333333333333336,-0.971,-0.178,-0.202
237447,1755604529388,75.2,-138.04,-93.83,777,918,908,369,926,34.48275862068966,-0.967,-0.175,-0.201
237477,1755604529417,75.17,-138.02,-93.85,777,927,885,408,933,33.333333333333336,-0.966,-0.176,-0.202
237506,1755604529447,75.17,-138.05,-93.87,779,924,890,404,930,34.48275862068966,-0.968,-0.177,-0.202
237536,1755604529476,75.18,-138.07,-93.88,777,909,898,352,930,33.333333333333336,-0.969,-0.177,-0.202
237565,1755604529506,75.15,-138.05,-93.88,781,925,876,362,926,34.48275862068966,-0.967,-0.179,-0.202
237595,1755604529536,75.15,-138.06,-93.89,780,933,897,412,928,33.333333333333336,-0.967,-0.177,-0.202
237624,1755604529565,75.14,-138.09,-93.9,777,922,883,407,922,34.48275862068966,-0.969,-0.177,-0.202
237654,1755604529595,75.13,-138.1,-93.91,781,929,894,355,928,33.333333333333336,-0.969,-0.177,-0.2
237684,1755604529625,75.14,-138.1,-93.92,779,918,891,346,933,33.333333333333336,-0.967,-0.177,-0.2
237714,1755604529654,75.15,-138.12,-93.93,773,928,892,371,932,33.333333333333336,-0.969,-0.178,-0.2
237743,1755604529684,75.14,-138.11,-93.93,778,931,896,401,927,34.48275862068966,-0.968,-0.178,-0.198
237773,1755604529713,75.17,-138.1,-93.95,782,922,885,386,925,33.333333333333336,-0.969,-0.177,-0.2
237802,1755604529743,75.15,-138.14,-93.97,779,925,885,300,933,34.48275862068966,-0.968,-0.176,-0.202
237832,1755604529772,75.16,-138.12,-93.99,776,923,889,328,925,33.333333333333336,-0.968,-0.177,-0.201
237862,1755604529802,75.16,-138.12,-94.01,779,925,900,380,930,33.333333333333336,-0.968,-0.177,-0.202
237891,1755604529832,75.17,-138.13,-94.02,771,925,900,393,930,34.48275862068966,-0.969,-0.179,-0.2
237921,1755604529861,75.2,-138.11,-94.02,782,937,894,348,931,33.333333333333336,-0.97,-0.179,-0.201
237950,1755604529891,75.19,-138.12,-94.03,777,919,889,332,933,34.48275862068966,-0.97,-0.178,-0.201
237980,1755604529920,75.19,-138.12,-94.03,782,929,882,377,931,33.333333333333336,-0.969,-0.177,-0.201
238009,1755604529950,75.19,-138.13,-94.04,777,923,885,414,934,34.48275862068966,-0.969,-0.177,-0.202
238039,1755604529979,75.19,-138.15,-94.05,778,934,897,377,937,33.333333333333336,-0.968,-0.178,-0.201
238068,1755604530009,75.18,-138.15,-94.05,779,921,892,336,930,34.48275862068966,-0.969,-0.179,-0.2
238098,1755604530038,75.19,-138.1,-94.04,782,918,901,372,924,33.333333333333336,-0.968,-0.179,-0.2
238127,1755604530068,75.19,-138.07,-94.04,776,923,891,425,926,34.48275862068966,-0.967,-0.177,-0.201
238157,1755604530097,75.2,-138.06,-94.05,779,923,895,408,934,33.333333333333336,-0.968,-0.177,-0.203
238186,1755604530127,75.16,-138.03,-94.04,778,926,893,340,933,34.48275862068966,-0.97,-0.177,-0.206
238216,1755604530156,75.13,-138.06,-94.03,780,917,898,344,935,33.333333333333336,-0.971,-0.179,-0.204
238245,1755604530186,75.13,-138.08,-94.02,779,925,884,391,936,34.48275862068966,-0.97,-0.179,-0.201
238275,1755604530215,75.1,-138.07,-94.01,778,925,894,407,926,33.333333333333336,-0.969,-0.176,-0.2
238304,1755604530245,75.1,-138.06,-94.02,775,916,877,360,924,34.48275862068966,-0.967,-0.176,-0.2
238354,1755604530295,75.11,-138.11,-94.03,782,932,893,390,924,50.0,-0.972,-0.174,-0.201
238384,1755604530324,75.05,-138.1,-94.04,779,926,893,321,936,33.333333333333336,-0.968,-0.175,-0.201
238413,1755604530354,75.04,-138.08,-94.05,779,926,889,366,929,34.48275862068966,-0.966,-0.174,-0.199
238443,1755604530384,75.04,-138.08,-94.08,780,931,895,406,926,33.333333333333336,-0.968,-0.176,-0.199
238473,1755604530414,75.0,-138.06,-94.08,778,919,896,400,922,33.333333333333336,-0.968,-0.176,-0.199
238493,1755604530433,74.99,-138.06,-94.09,779,934,896,378,931,50.0,-0.968,-0.175,-0.198
238523,1755604530463,74.98,-138.03,-94.1,774,929,906,369,925,33.333333333333336,-0.967,-0.175,-0.197
238552,1755604530492,75.01,-138.02,-94.13,781,929,904,323,935,34.48275862068966,-0.968,-0.176,-0.198
238582,1755604530522,75.0,-138.04,-94.14,774,929,894,364,931,33.333333333333336,-0.969,-0.177,-0.2
238611,1755604530552,75.0,-138.03,-94.16,779,927,894,424,936,34.48275862068966,-0.968,-0.176,-0.199
238641,1755604530581,75.01,-138.05,-94.2,779,935,898,417,927,33.333333333333336,-0.967,-0.174,-0.199
238670,1755604530610,75.02,-138.08,-94.25,778,919,893,347,926,34.48275862068966,-0.967,-0.174,-0.197
238700,1755604530640,75.06,-138.05,-94.27,777,929,898,350,933,33.333333333333336,-0.97,-0.176,-0.199
238729,1755604530670,75.04,-138.01,-94.27,775,917,889,400,930,34.48275862068966,-0.973,-0.178,-0.199
238759,1755604530700,75.04,-137.99,-94.28,778,924,909,421,929,33.333333333333336,-0.97,-0.179,-0.197
238789,1755604530729,75.04,-137.97,-94.29,772,922,900,380,927,33.333333333333336,-0.968,-0.18,-0.196
238818,1755604530759,75.04,-137.92,-94.31,779,927,892,347,933,34.48275862068966,-0.97,-0.179,-0.197
238848,1755604530789,75.02,-137.91,-94.31,780,915,903,365,920,33.333333333333336,-0.97,-0.18,-0.199
238878,1755604530818,74.57,-137.91,-94.32,779,915,878,397,926,33.333333333333336,-0.97,-0.179,-0.199
238908,1755604530848,74.57,-137.87,-94.32,777,931,892,406,931,33.333333333333336,-0.968,-0.18,-0.197
238937,1755604530878,74.6,-137.85,-94.33,780,926,893,346,926,34.48275862068966,-0.968,-0.18,-0.195
238967,1755604530907,74.61,-137.81,-94.34,777,921,886,337,928,33.333333333333336,-0.969,-0.179,-0.196
238996,1755604530937,74.62,-137.8,-94.34,779,925,891,390,928,34.48275862068966,-0.97,-0.181,-0.197
239026,1755604530966,74.62,-137.79,-94.35,776,921,891,411,926,33.333333333333336,-0.969,-0.181,-0.198
239055,1755604530996,74.61,-137.77,-94.36,777,931,895,381,926,34.48275862068966,-0.969,-0.179,-0.196
239085,1755604531026,74.61,-137.73,-94.36,775,924,892,337,924,33.333333333333336,-0.969,-0.179,-0.195
239115,1755604531055,74.62,-137.71,-94.35,774,925,898,361,932,33.333333333333336,-0.969,-0.18,-0.195
239144,1755604531085,74.65,-137.68,-94.34,776,925,899,405,928,34.48275862068966,-0.969,-0.181,-0.195
239174,1755604531114,74.67,-137.65,-94.34,776,937,890,403,928,33.333333333333336,-0.969,-0.179,-0.195
239203,1755604531144,74.69,-137.61,-94.34,777,928,894,338,927,34.48275862068966,-0.967,-0.178,-0.195
239233,1755604531173,74.72,-137.56,-94.34,779,927,886,352,935,33.333333333333336,-0.969,-0.178,-0.197
