timestamp_ms,recv_timestamp_ms,pitch,roll,yaw,flex1,flex2,flex3,flex4,flex5,sampling_hz,accel_x,accel_y,accel_z
221713,1755604515243,77.97,-125.75,-88.71,777,923,886,416,922,33.333333333333336,-0.978,-0.183,-0.134
221742,1755604515245,78.05,-125.79,-88.72,783,928,894,389,921,34.48275862068966,-0.98,-0.181,-0.134
221772,1755604515247,78.05,-125.83,-88.72,781,917,910,331,927,33.333333333333336,-0.98,-0.18,-0.137
221802,1755604515249,78.03,-125.88,-88.73,778,936,885,368,934,33.333333333333336,-0.98,-0.178,-0.138
221832,1755604515251,78.03,-125.93,-88.75,780,935,898,421,930,33.333333333333336,-0.979,-0.178,-0.138
221861,1755604515253,78.05,-125.95,-88.76,775,931,903,389,928,34.48275862068966,-0.98,-0.179,-0.139
221891,1755604515255,78.02,-125.98,-88.77,777,918,889,339,917,33.333333333333336,-0.981,-0.179,-0.139
221920,1755604515257,78.0,-125.98,-88.78,780,928,909,344,930,34.48275862068966,-0.979,-0.179,-0.137
221950,1755604515259,77.99,-126.02,-88.8,775,938,893,383,936,33.333333333333336,-0.978,-0.18,-0.138
221971,1755604515261,77.98,-126.05,-88.81,779,927,895,333,930,47.61904761904762,-0.978,-0.181,-0.139
222001,1755604515263,77.95,-126.04,-88.81,778,923,903,388,924,33.333333333333336,-0.98,-0.181,-0.14
222030,1755604515265,77.91,-126.07,-88.8,780,936,892,420,929,34.48275862068966,-0.979,-0.181,-0.14
222050,1755604515267,77.9,-126.09,-88.8,780,931,885,379,924,50.0,-0.978,-0.18,-0.14
222080,1755604515269,77.9,-126.14,-88.8,771,932,895,399,929,33.333333333333336,-0.979,-0.18,-0.139
222110,1755604515271,77.88,-126.18,-88.8,778,918,890,387,923,33.333333333333336,-0.979,-0.18,-0.138
222140,1755604515273,77.85,-126.19,-88.8,777,930,900,348,923,33.333333333333336,-0.979,-0.18,-0.138
222170,1755604515275,77.84,-126.22,-88.8,773,932,896,366,930,33.333333333333336,-0.978,-0.179,-0.137
222200,1755604515277,77.84,-126.26,-88.82,781,925,896,398,930,33.333333333333336,-0.977,-0.179,-0.138
222230,1755604515279,77.84,-126.26,-88.83,778,919,878,407,928,33.333333333333336,-0.978,-0.179,-0.137
222250,1755604515282,77.83,-126.26,-88.84,778,932,889,362,940,50.0,-0.978,-0.179,-0.137
222280,1755604515283,77.82,-126.27,-88.84,778,927,891,383,926,33.333333333333336,-0.978,-0.18,-0.138
222309,1755604515286,77.81,-126.29,-88.84,779,927,903,377,933,34.48275862068966,-0.98,-0.18,-0.138
222339,1755604515288,77.8,-126.33,-88.84,780,927,901,327,935,33.333333333333336,-0.979,-0.179,-0.137
222369,1755604515290,77.79,-126.34,-88.85,780,929,895,348,929,33.333333333333336,-0.977,-0.179,-0.137
222398,1755604515292,77.76,-126.37,-88.87,776,916,894,401,935,34.48275862068966,-0.977,-0.178,-0.138
222418,1755604515294,77.75,-126.41,-88.88,779,932,902,343,920,50.0,-0.978,-0.178,-0.139
222448,1755604515296,77.76,-126.42,-88.89,776,931,900,392,928,33.333333333333336,-0.98,-0.179,-0.14
222478,1755604515299,77.75,-126.45,-88.89,781,930,891,396,932,33.333333333333336,-0.98,-0.178,-0.138
222507,1755604515301,77.75,-126.46,-88.9,782,922,900,360,934,34.48275862068966,-0.977,-0.179,-0.137
222537,1755604515303,77.74,-126.44,-88.91,781,930,899,346,935,33.333333333333336,-0.977,-0.179,-0.135
222567,1755604515305,77.74,-126.44,-88.94,782,932,891,391,933,33.333333333333336,-0.978,-0.179,-0.136
222597,1755604515307,77.73,-126.42,-88.95,778,924,896,399,927,33.333333333333336,-0.981,-0.178,-0.135
222626,1755604515309,77.7,-126.43,-88.95,781,917,901,396,935,34.48275862068966,-0.979,-0.178,-0.136
222656,1755604515311,77.68,-126.42,-88.98,781,921,897,334,925,33.333333333333336,-0.978,-0.178,-0.135
222685,1755604515313,77.65,-126.44,-89.01,776,922,902,358,930,34.48275862068966,-0.979,-0.178,-0.135
222715,1755604515315,77.66,-126.48,-89.05,780,927,902,417,928,33.333333333333336,-0.983,-0.179,-0.138
222744,1755604515317,77.67,-126.53,-89.06,775,926,890,403,931,34.48275862068966,-0.984,-0.18,-0.141
222774,1755604515319,77.64,-126.54,-89.05,780,926,895,358,932,33.333333333333336,-0.981,-0.182,-0.139
222804,1755604515321,77.66,-126.56,-89.06,775,925,899,345,936,33.333333333333336,-0.979,-0.183,-0.137
222834,1755604515323,77.66,-126.57,-89.07,771,927,901,392,920,33.333333333333336,-0.978,-0.182,-0.136
222863,1755604515326,77.66,-126.56,-89.07,779,936,883,373,934,34.48275862068966,-0.979,-0.181,-0.136
222893,1755604515327,77.67,-126.58,-89.07,783,931,905,375,925,33.333333333333336,-0.978,-0.181,-0.137
222923,1755604515330,77.68,-126.57,-89.08,781,927,895,298,928,33.333333333333336,-0.977,-0.18,-0.137
222953,1755604515332,77.69,-126.55,-89.09,778,929,915,336,927,33.333333333333336,-0.978,-0.18,-0.137
222982,1755604515335,77.67,-126.56,-89.1,776,930,900,401,941,34.48275862068966,-0.978,-0.18,-0.135
223012,1755604515337,77.71,-126.55,-89.11,774,925,893,408,928,33.333333333333336,-0.977,-0.179,-0.136
223071,1755604515341,77.68,-126.58,-89.12,779,937,891,332,930,34.48275862068966,-0.978,-0.176,-0.137
223101,1755604515343,77.68,-126.6,-89.16,780,923,903,352,934,33.333333333333336,-0.976,-0.176,-0.137
223131,1755604515345,77.69,-126.64,-89.2,781,924,898,428,928,33.333333333333336,-0.977,-0.178,-0.137
223160,1755604515347,77.68,-126.68,-89.24,782,924,902,394,937,34.48275862068966,-0.978,-0.179,-0.138
223190,1755604515349,77.69,-126.7,-89.26,778,922,899,332,930,33.333333333333336,-0.979,-0.18,-0.139
223220,1755604515351,77.69,-126.73,-89.27,781,936,883,331,932,33.333333333333336,-0.979,-0.181,-0.14
223249,1755604515353,77.69,-126.77,-89.29,775,933,889,385,930,34.48275862068966,-0.98,-0.182,-0.139
223279,1755604515355,77.73,-126.77,-89.29,773,933,909,399,927,33.333333333333336,-0.979,-0.183,-0.138
223309,1755604515358,77.74,-126.76,-89.29,780,925,903,365,931,33.333333333333336,-0.979,-0.183,-0.14
223338,1755604515360,77.77,-126.81,-89.31,776,930,888,336,929,34.48275862068966,-0.979,-0.181,-0.139
223368,1755604515362,77.79,-126.82,-89.32,778,928,894,372,935,33.333333333333336,-0.977,-0.18,-0.14
223397,1755604515364,77.83,-126.82,-89.35,780,923,904,422,936,34.48275862068966,-0.977,-0.179,-0.139
223457,1755604515397,77.85,-126.85,-89.43,777,935,886,358,929,33.333333333333336,-0.977,-0.18,-0.139
223486,1755604515427,78.3,-126.85,-89.47,780,929,898,323,930,34.48275862068966,-0.975,-0.181,-0.14
223516,1755604515456,78.29,-126.86,-89.51,777,909,894,382,920,33.333333333333336,-0.976,-0.182,-0.143
223546,1755604515486,78.25,-126.88,-89.53,779,924,893,398,928,33.333333333333336,-0.98,-0.183,-0.145
223575,1755604515516,78.21,-126.9,-89.52,782,921,903,364,927,34.48275862068966,-0.98,-0.184,-0.145
223605,1755604515546,78.18,-126.93,-89.53,781,924,902,331,930,33.333333333333336,-0.978,-0.185,-0.145
223635,1755604515576,78.17,-126.94,-89.52,780,929,894,368,921,33.333333333333336,-0.978,-0.186,-0.144
223665,1755604515605,78.15,-126.98,-89.54,779,930,902,400,931,33.333333333333336,-0.977,-0.184,-0.142
223694,1755604515635,78.13,-126.97,-89.55,780,938,893,403,923,34.48275862068966,-0.976,-0.184,-0.143
223724,1755604515665,78.11,-126.97,-89.56,777,932,900,366,932,33.333333333333336,-0.978,-0.183,-0.144
223753,1755604515694,78.08,-127.02,-89.57,776,926,886,350,927,34.48275862068966,-0.979,-0.183,-0.145
223783,1755604515723,78.06,-127.04,-89.57,776,924,885,383,925,33.333333333333336,-0.977,-0.183,-0.145
223812,1755604515753,78.06,-127.09,-89.59,774,928,896,415,935,34.48275862068966,-0.978,-0.183,-0.143
223842,1755604515783,78.04,-127.08,-89.61,781,939,892,382,927,33.333333333333336,-0.976,-0.186,-0.145
223872,1755604515813,77.99,-127.08,-89.62,781,922,900,300,928,33.333333333333336,-0.978,-0.185,-0.144
223902,1755604515842,78.0,-127.09,-89.63,776,932,892,337,937,33.333333333333336,-0.978,-0.185,-0.142
223931,1755604515872,77.99,-127.08,-89.63,779,934,894,402,917,34.48275862068966,-0.977,-0.186,-0.143
223961,1755604515901,77.98,-127.08,-89.64,775,922,894,356,935,33.333333333333336,-0.977,-0.185,-0.142
223991,1755604515931,77.99,-127.1,-89.66,779,937,888,284,924,33.333333333333336,-0.976,-0.183,-0.139
224050,1755604515990,77.99,-127.11,-89.69,774,930,891,335,933,33.333333333333336,-0.979,-0.185,-0.145
224079,1755604516020,77.98,-127.14,-89.7,776,925,888,372,932,34.48275862068966,-0.979,-0.183,-0.146
224109,1755604516049,77.97,-127.15,-89.71,775,938,884,353,925,33.333333333333336,-0.978,-0.182,-0.148
224168,1755604516109,77.96,-127.24,-89.76,778,926,899,325,926,34.48275862068966,-0.976,-0.184,-0.146
224198,1755604516138,77.97,-127.24,-89.8,783,932,895,382,931,33.333333333333336,-0.974,-0.19,-0.145
224228,1755604516168,78.03,-127.24,-89.83,776,925,897,389,930,33.333333333333336,-0.974,-0.189,-0.143
224257,1755604516198,78.05,-127.22,-89.86,775,938,891,349,923,34.48275862068966,-0.974,-0.189,-0.143
224287,1755604516227,78.07,-127.2,-89.89,778,927,890,346,926,33.333333333333336,-0.974,-0.191,-0.142
224316,1755604516257,78.1,-127.17,-89.9,779,926,899,384,929,34.48275862068966,-0.977,-0.191,-0.146
224346,1755604516287,78.03,-127.16,-89.89,780,925,894,414,930,33.333333333333336,-0.98,-0.191,-0.15
224376,1755604516316,77.99,-127.2,-89.88,776,927,890,371,932,33.333333333333336,-0.977,-0.19,-0.15
224406,1755604516346,78.0,-127.21,-89.85,780,934,896,347,933,33.333333333333336,-0.98,-0.188,-0.151
224435,1755604516375,77.96,-127.23,-89.82,777,921,889,339,930,34.48275862068966,-0.98,-0.186,-0.154
224465,1755604516405,77.91,-127.27,-89.8,773,927,905,386,921,33.333333333333336,-0.975,-0.187,-0.154
224494,1755604516434,77.86,-127.33,-89.79,781,923,907,378,931,34.48275862068966,-0.971,-0.188,-0.149
224524,1755604516464,77.88,-127.35,-89.78,776,925,895,347,934,33.333333333333336,-0.973,-0.188,-0.146
224553,1755604516494,77.94,-127.38,-89.77,775,915,902,344,932,34.48275862068966,-0.976,-0.187,-0.148
224583,1755604516523,77.94,-127.42,-89.73,784,926,901,393,930,33.333333333333336,-0.977,-0.186,-0.151
224613,1755604516553,77.92,-127.51,-89.71,781,937,888,414,932,33.333333333333336,-0.973,-0.185,-0.152
224642,1755604516583,77.95,-127.55,-89.7,776,932,901,371,924,34.48275862068966,-0.977,-0.182,-0.153
224692,1755604516633,77.92,-127.73,-89.72,779,932,900,406,931,50.0,-0.976,-0.178,-0.153
224722,1755604516662,77.92,-127.79,-89.74,778,928,893,352,926,33.333333333333336,-0.975,-0.179,-0.156
224752,1755604516692,77.85,-127.81,-89.76,779,938,890,357,932,33.333333333333336,-0.976,-0.182,-0.153
224811,1755604516751,77.81,-127.8,-89.75,782,930,900,419,928,33.333333333333336,-0.979,-0.181,-0.151
224840,1755604516780,77.81,-127.88,-89.76,780,937,897,364,928,34.48275862068966,-0.978,-0.179,-0.154
224870,1755604516810,77.81,-127.92,-89.78,777,938,894,365,930,33.333333333333336,-0.976,-0.177,-0.156
224899,1755604516840,77.8,-128.0,-89.83,780,923,897,403,929,34.48275862068966,-0.974,-0.178,-0.156
224929,1755604516870,77.81,-128.06,-89.88,778,943,896,418,927,33.333333333333336,-0.975,-0.18,-0.155
224949,1755604516890,77.81,-128.11,-89.9,779,933,888,386,930,50.0,-0.977,-0.182,-0.154
224979,1755604516919,77.8,-128.14,-89.91,778,919,891,368,929,33.333333333333336,-0.977,-0.183,-0.154
225009,1755604516950,77.8,-128.17,-89.92,780,931,891,363,924,33.333333333333336,-0.975,-0.183,-0.152
225038,1755604516979,77.81,-128.21,-89.96,779,924,899,324,927,34.48275862068966,-0.974,-0.182,-0.154
225058,1755604516999,77.79,-128.25,-89.98,778,930,876,405,930,50.0,-0.974,-0.183,-0.156
225088,1755604517028,77.8,-128.33,-90.0,779,924,902,352,928,33.333333333333336,-0.976,-0.184,-0.157
225148,1755604517088,77.81,-128.54,-90.01,781,934,899,413,929,33.333333333333336,-0.974,-0.183,-0.157
225177,1755604517118,77.83,-128.57,-90.03,775,929,899,393,934,34.48275862068966,-0.972,-0.181,-0.157
225198,1755604517138,77.84,-128.64,-90.05,783,929,889,385,927,47.61904761904762,-0.973,-0.179,-0.159
225227,1755604517167,77.84,-128.71,-90.09,780,923,893,392,935,34.48275862068966,-0.974,-0.18,-0.162
225257,1755604517197,77.79,-128.8,-90.1,781,936,877,352,930,33.333333333333336,-0.978,-0.183,-0.163
225286,1755604517228,77.74,-128.89,-90.1,779,930,900,358,919,34.48275862068966,-0.978,-0.182,-0.161
225306,1755604517247,77.7,-128.96,-90.11,776,926,887,374,931,50.0,-0.975,-0.183,-0.163
225336,1755604517276,77.66,-129.08,-90.12,781,933,896,376,927,33.333333333333336,-0.975,-0.184,-0.164
225366,1755604517306,77.6,-129.17,-90.13,779,925,900,396,933,33.333333333333336,-0.978,-0.184,-0.164
225395,1755604517336,77.55,-129.25,-90.11,776,927,897,403,932,34.48275862068966,-0.978,-0.184,-0.165
225425,1755604517365,77.52,-129.39,-90.11,776,928,888,374,931,33.333333333333336,-0.975,-0.184,-0.163
225454,1755604517395,77.49,-129.46,-90.1,778,931,894,328,928,34.48275862068966,-0.974,-0.184,-0.162
225484,1755604517424,77.43,-129.51,-90.09,776,942,894,360,931,33.333333333333336,-0.973,-0.184,-0.161
225513,1755604517454,77.39,-129.55,-90.08,776,915,893,402,929,34.48275862068966,-0.972,-0.183,-0.16
225543,1755604517483,77.36,-129.61,-90.06,775,930,890,404,932,33.333333333333336,-0.975,-0.183,-0.161
225572,1755604517513,77.31,-129.68,-90.04,780,936,896,355,921,34.48275862068966,-0.973,-0.182,-0.162
225602,1755604517543,77.28,-129.68,-90.01,776,928,908,339,926,33.333333333333336,-0.973,-0.182,-0.161
225632,1755604517573,77.26,-129.69,-90.02,781,928,890,398,934,33.333333333333336,-0.971,-0.18,-0.159
225652,1755604517593,77.23,-129.72,-90.04,774,931,885,347,925,50.0,-0.971,-0.178,-0.158
225682,1755604517622,77.2,-129.75,-90.06,777,928,900,391,940,33.333333333333336,-0.973,-0.18,-0.159
225712,1755604517652,77.18,-129.78,-90.06,777,930,908,397,927,33.333333333333336,-0.976,-0.18,-0.159
225741,1755604517682,77.14,-129.83,-90.06,778,926,896,363,922,34.48275862068966,-0.975,-0.18,-0.158
225771,1755604517711,77.11,-129.83,-90.08,778,931,906,346,918,33.333333333333336,-0.974,-0.181,-0.16
225801,1755604517741,77.06,-129.84,-90.07,779,919,887,382,921,33.333333333333336,-0.973,-0.181,-0.158
225830,1755604517770,77.08,-129.83,-90.07,782,932,889,384,917,34.48275862068966,-0.975,-0.18,-0.159
225860,1755604517800,77.08,-129.84,-90.07,772,924,881,388,931,33.333333333333336,-0.975,-0.179,-0.159
225889,1755604517830,77.1,-129.87,-90.08,773,924,897,328,919,34.48275862068966,-0.975,-0.179,-0.162
225919,1755604517859,77.1,-129.92,-90.09,779,931,893,349,925,33.333333333333336,-0.977,-0.179,-0.161
225949,1755604517889,77.08,-129.94,-90.09,773,926,896,409,933,33.333333333333336,-0.975,-0.181,-0.16
225978,1755604517919,77.09,-129.96,-90.09,779,925,895,405,929,34.48275862068966,-0.975,-0.181,-0.16
226008,1755604517948,77.07,-129.97,-90.1,778,927,894,366,932,33.333333333333336,-0.976,-0.18,-0.159
226038,1755604517978,77.1,-129.99,-90.1,781,938,884,329,933,33.333333333333336,-0.974,-0.18,-0.158
226067,1755604518008,77.1,-130.04,-90.12,776,933,894,349,933,34.48275862068966,-0.975,-0.18,-0.159
226097,1755604518037,77.09,-130.07,-90.11,779,931,881,407,928,33.333333333333336,-0.976,-0.179,-0.159
226126,1755604518067,77.07,-130.11,-90.11,780,942,912,400,937,34.48275862068966,-0.976,-0.178,-0.16
226156,1755604518097,77.08,-130.13,-90.13,779,935,888,349,927,33.333333333333336,-0.975,-0.177,-0.16
226186,1755604518127,77.06,-130.15,-90.14,777,931,893,341,929,33.333333333333336,-0.975,-0.176,-0.159
226216,1755604518156,77.06,-130.18,-90.17,778,925,898,370,924,33.333333333333336,-0.974,-0.177,-0.161
226245,1755604518186,77.03,-130.21,-90.19,776,925,893,403,929,34.48275862068966,-0.975,-0.178,-0.162
226275,1755604518215,76.99,-130.25,-90.2,779,927,890,376,930,33.333333333333336,-0.976,-0.178,-0.163
226305,1755604518245,76.94,-130.28,-90.2,780,943,896,323,929,33.333333333333336,-0.979,-0.179,-0.162
226334,1755604518275,76.93,-130.3,-90.19,779,930,894,344,925,34.48275862068966,-0.976,-0.178,-0.16
226364,1755604518305,76.95,-130.32,-90.21,781,929,902,408,922,33.333333333333336,-0.973,-0.18,-0.159
226394,1755604518334,76.96,-130.3,-90.23,781,936,901,398,930,33.333333333333336,-0.974,-0.181,-0.158
226423,1755604518364,76.96,-130.3,-90.24,778,932,910,362,926,34.48275862068966,-0.977,-0.18,-0.158
226453,1755604518393,76.96,-130.32,-90.25,778,932,892,351,930,33.333333333333336,-0.978,-0.178,-0.16
226483,1755604518423,76.94,-130.34,-90.25,779,917,894,395,929,33.333333333333336,-0.977,-0.179,-0.161
226512,1755604518453,76.93,-130.36,-90.26,773,930,890,403,929,34.48275862068966,-0.976,-0.179,-0.16
226542,1755604518482,76.94,-130.37,-90.27,782,931,895,377,929,33.333333333333336,-0.976,-0.179,-0.159
226572,1755604518512,76.96,-130.44,-90.28,782,923,888,335,928,33.333333333333336,-0.976,-0.18,-0.16
226601,1755604518542,76.96,-130.49,-90.27,775,926,908,362,931,34.48275862068966,-0.976,-0.18,-0.16
226631,1755604518572,76.97,-130.47,-90.25,778,931,895,414,929,33.333333333333336,-0.976,-0.179,-0.16
226661,1755604518601,76.96,-130.5,-90.26,782,936,910,426,929,33.333333333333336,-0.974,-0.178,-0.16
226691,1755604518631,76.95,-130.55,-90.28,772,930,900,356,930,33.333333333333336,-0.974,-0.178,-0.16
226720,1755604518660,76.97,-130.57,-90.29,776,940,900,343,930,34.48275862068966,-0.978,-0.179,-0.162
226750,1755604518690,76.94,-130.62,-90.28,778,918,895,360,932,33.333333333333336,-0.978,-0.178,-0.164
226779,1755604518719,76.94,-130.65,-90.27,779,937,888,408,924,34.48275862068966,-0.977,-0.178,-0.162
226809,1755604518749,76.95,-130.7,-90.27,779,932,895,373,932,33.333333333333336,-0.974,-0.178,-0.16
226838,1755604518778,76.98,-130.76,-90.29,779,929,900,333,930,34.48275862068966,-0.975,-0.178,-0.162
226868,1755604518808,77.01,-130.8,-90.3,778,930,890,342,932,33.333333333333336,-0.976,-0.179,-0.162
226897,1755604518838,77.05,-130.8,-90.3,781,917,894,414,928,34.48275862068966,-0.975,-0.177,-0.162
226927,1755604518868,77.12,-130.84,-90.35,781,934,913,396,930,33.333333333333336,-0.971,-0.177,-0.163
226957,1755604518897,77.19,-130.88,-90.39,778,932,892,364,923,33.333333333333336,-0.976,-0.178,-0.164
226986,1755604518927,77.17,-130.91,-90.38,775,927,888,348,927,34.48275862068966,-0.976,-0.178,-0.165
227016,1755604518956,77.2,-130.94,-90.38,777,931,894,376,930,33.333333333333336,-0.976,-0.179,-0.167
227046,1755604518986,77.2,-131.02,-90.38,776,925,895,414,932,33.333333333333336,-0.976,-0.179,-0.166
227075,1755604519016,77.17,-131.08,-90.39,780,931,894,377,936,34.48275862068966,-0.976,-0.179,-0.166
227105,1755604519045,77.08,-131.15,-90.4,779,926,903,339,936,33.333333333333336,-0.976,-0.177,-0.168
227134,1755604519075,77.06,-131.32,-90.44,776,931,896,366,938,34.48275862068966,-0.973,-0.175,-0.168
227194,1755604519134,77.16,-131.51,-90.51,776,928,900,422,926,33.333333333333336,-0.973,-0.176,-0.167
227224,1755604519164,77.16,-131.51,-90.53,780,925,897,354,927,33.333333333333336,-0.971,-0.177,-0.167
227253,1755604519194,77.2,-131.54,-90.55,776,930,906,342,935,34.48275862068966,-0.974,-0.178,-0.17
227283,1755604519223,77.23,-131.6,-90.56,781,917,896,359,935,33.333333333333336,-0.977,-0.18,-0.17
227313,1755604519253,77.22,-131.18,-90.56,779,934,894,410,931,33.333333333333336,-0.977,-0.18,-0.172
227342,1755604519283,77.2,-131.22,-90.55,780,929,906,385,929,34.48275862068966,-0.974,-0.18,-0.172
227402,1755604519342,77.23,-131.29,-90.57,778,933,892,343,927,33.333333333333336,-0.973,-0.18,-0.171
227431,1755604519371,77.19,-131.33,-90.57,776,929,897,386,927,34.48275862068966,-0.974,-0.179,-0.173
227461,1755604519401,77.16,-131.37,-90.56,778,925,893,392,928,33.333333333333336,-0.975,-0.178,-0.174
227520,1755604519460,77.17,-131.48,-90.57,780,923,902,317,936,33.333333333333336,-0.972,-0.177,-0.173
227549,1755604519489,77.19,-131.55,-90.6,775,930,885,369,930,34.48275862068966,-0.972,-0.177,-0.174
227578,1755604519519,77.14,-131.6,-90.61,781,925,894,399,922,34.48275862068966,-0.973,-0.178,-0.175
227608,1755604519549,77.11,-131.67,-90.62,775,928,897,368,927,33.333333333333336,-0.975,-0.178,-0.176
227638,1755604519579,77.07,-131.73,-90.61,781,924,889,336,932,33.333333333333336,-0.974,-0.177,-0.177
227668,1755604519608,77.01,-131.78,-90.62,779,938,894,364,918,33.333333333333336,-0.972,-0.178,-0.173
227697,1755604519638,77.05,-131.82,-90.64,780,934,883,420,924,34.48275862068966,-0.973,-0.179,-0.175
227727,1755604519667,77.08,-131.88,-90.65,776,928,895,428,929,33.333333333333336,-0.975,-0.179,-0.174
227757,1755604519697,77.07,-131.92,-90.64,782,938,893,375,931,33.333333333333336,-0.974,-0.179,-0.175
227786,1755604519727,77.06,-131.97,-90.65,778,928,888,362,934,34.48275862068966,-0.973,-0.178,-0.175
227816,1755604519756,77.06,-132.04,-90.67,775,928,882,388,925,33.333333333333336,-0.975,-0.178,-0.175
227846,1755604519786,77.03,-132.06,-90.67,778,930,894,425,931,33.333333333333336,-0.974,-0.178,-0.175
227875,1755604519816,77.0,-132.1,-90.68,779,920,903,395,932,34.48275862068966,-0.973,-0.177,-0.176
227905,1755604519845,77.01,-132.16,-90.7,779,931,895,334,934,33.333333333333336,-0.974,-0.177,-0.175
227934,1755604519875,76.99,-132.21,-90.72,780,931,889,348,928,34.48275862068966,-0.973,-0.177,-0.176
227964,1755604519904,76.98,-132.26,-90.74,775,924,897,410,938,33.333333333333336,-0.973,-0.178,-0.176
227993,1755604519934,76.95,-132.31,-90.75,776,928,886,402,932,34.48275862068966,-0.975,-0.178,-0.177
228023,1755604519963,76.9,-132.36,-90.76,780,928,893,357,935,33.333333333333336,-0.976,-0.178,-0.178
228053,1755604519993,76.9,-132.42,-90.77,778,916,893,334,930,33.333333333333336,-0.974,-0.178,-0.176
228082,1755604520023,76.92,-132.5,-90.79,774,927,905,369,933,34.48275862068966,-0.971,-0.178,-0.176
228141,1755604520082,76.89,-132.54,-90.81,774,928,889,340,932,34.48275862068966,-0.973,-0.179,-0.175
228171,1755604520112,76.9,-132.59,-90.82,780,925,896,327,933,33.333333333333336,-0.974,-0.179,-0.177
228201,1755604520141,76.86,-132.65,-90.82,779,938,901,345,927,33.333333333333336,-0.973,-0.178,-0.178
228260,1755604520201,76.83,-132.73,-90.84,781,931,897,395,930,34.48275862068966,-0.973,-0.177,-0.177
228290,1755604520230,76.83,-132.76,-90.86,776,917,891,349,924,33.333333333333336,-0.971,-0.178,-0.177
228319,1755604520260,76.83,-132.8,-90.88,776,929,892,309,923,34.48275862068966,-0.972,-0.178,-0.176
228349,1755604520290,76.83,-132.84,-90.9,778,921,891,362,929,33.333333333333336,-0.971,-0.177,-0.178
228379,1755604520319,76.82,-132.89,-90.92,779,923,892,407,930,33.333333333333336,-0.972,-0.178,-0.178
228408,1755604520349,76.83,-132.95,-90.94,777,925,880,379,928,34.48275862068966,-0.973,-0.179,-0.177
228438,1755604520379,76.81,-132.97,-90.95,777,924,895,335,927,33.333333333333336,-0.973,-0.179,-0.178
228468,1755604520409,76.81,-132.98,-90.96,782,920,893,345,931,33.333333333333336,-0.973,-0.179,-0.178
228498,1755604520438,76.78,-133.0,-90.98,778,930,896,401,933,33.333333333333336,-0.972,-0.178,-0.178
228527,1755604520468,76.78,-133.04,-91.0,779,927,884,414,931,34.48275862068966,-0.973,-0.178,-0.179
228557,1755604520497,76.78,-133.07,-91.01,771,929,891,376,938,33.333333333333336,-0.974,-0.179,-0.18
228587,1755604520527,76.76,-133.1,-91.02,777,930,892,351,931,33.333333333333336,-0.973,-0.178,-0.18
228616,1755604520556,76.77,-133.13,-91.04,778,936,896,378,933,34.48275862068966,-0.972,-0.178,-0.179
228646,1755604520586,76.76,-133.16,-91.06,774,922,896,433,930,33.333333333333336,-0.972,-0.179,-0.18
228675,1755604520616,76.72,-133.19,-91.07,780,913,893,393,933,34.48275862068966,-0.973,-0.18,-0.181
228705,1755604520645,76.69,-133.22,-91.07,776,916,882,339,930,33.333333333333336,-0.973,-0.181,-0.181
228734,1755604520675,76.69,-133.25,-91.07,780,926,886,335,927,34.48275862068966,-0.971,-0.18,-0.18
228764,1755604520704,76.69,-133.28,-91.09,782,920,888,398,929,33.333333333333336,-0.972,-0.18,-0.179
228794,1755604520734,76.68,-133.31,-91.1,771,929,893,398,928,33.333333333333336,-0.971,-0.181,-0.181
228823,1755604520764,76.67,-133.34,-91.11,778,929,904,368,926,34.48275862068966,-0.972,-0.181,-0.18
228853,1755604520793,76.65,-133.39,-91.12,775,930,903,349,925,33.333333333333336,-0.972,-0.18,-0.182
228882,1755604520823,76.61,-133.43,-91.11,774,927,892,383,924,34.48275862068966,-0.975,-0.18,-0.182
228912,1755604520853,76.57,-133.51,-91.1,774,920,893,419,932,33.333333333333336,-0.973,-0.18,-0.18
228942,1755604520882,76.56,-133.6,-91.1,777,928,893,387,923,33.333333333333336,-0.969,-0.18,-0.178
228971,1755604520912,76.61,-133.69,-91.13,781,931,906,330,932,34.48275862068966,-0.967,-0.179,-0.178
229001,1755604520941,76.62,-133.71,-91.14,772,931,889,343,929,33.333333333333336,-0.971,-0.179,-0.179
229030,1755604520971,76.58,-133.73,-91.14,774,926,887,407,927,34.48275862068966,-0.973,-0.178,-0.181
229060,1755604521001,76.54,-133.78,-91.13,780,937,886,414,932,33.333333333333336,-0.973,-0.18,-0.18
229090,1755604521030,76.55,-133.85,-91.12,781,920,902,381,933,33.333333333333336,-0.971,-0.181,-0.181
229120,1755604521060,76.53,-133.92,-91.12,779,925,891,361,935,33.333333333333336,-0.971,-0.18,-0.181
229149,1755604521089,76.51,-133.94,-91.12,777,928,899,380,930,34.48275862068966,-0.971,-0.179,-0.18
229179,1755604521119,76.52,-133.99,-91.12,779,927,885,417,934,33.333333333333336,-0.972,-0.179,-0.181
229208,1755604521149,76.5,-134.01,-91.12,782,919,899,398,928,34.48275862068966,-0.971,-0.179,-0.18
229238,1755604521178,76.49,-134.02,-91.14,783,928,897,334,935,33.333333333333336,-0.971,-0.178,-0.18
229268,1755604521208,76.49,-134.05,-91.14,782,922,890,346,927,33.333333333333336,-0.972,-0.178,-0.18
229297,1755604521238,76.51,-134.1,-91.14,772,921,902,389,932,34.48275862068966,-0.972,-0.178,-0.181
229327,1755604521268,76.5,-134.13,-91.15,779,921,901,413,928,33.333333333333336,-0.972,-0.177,-0.181
229347,1755604521287,76.48,-134.15,-91.16,772,927,906,382,931,50.0,-0.972,-0.177,-0.181
229377,1755604521317,76.47,-134.18,-91.18,777,925,891,350,934,33.333333333333336,-0.971,-0.177,-0.18
229406,1755604521347,76.49,-134.2,-91.2,776,935,902,338,925,34.48275862068966,-0.97,-0.176,-0.181
229426,1755604521367,76.48,-134.21,-91.21,779,935,884,388,931,50.0,-0.97,-0.176,-0.181
229456,1755604521397,76.49,-134.23,-91.23,778,928,908,354,926,33.333333333333336,-0.971,-0.176,-0.181
229486,1755604521427,76.48,-134.27,-91.26,782,918,910,355,929,33.333333333333336,-0.972,-0.178,-0.183
229515,1755604521456,76.49,-134.32,-91.26,781,920,892,371,930,34.48275862068966,-0.972,-0.178,-0.183
229545,1755604521486,76.52,-134.36,-91.28,786,930,903,412,927,33.333333333333336,-0.972,-0.177,-0.182
229575,1755604521515,76.54,-134.41,-91.3,775,932,888,395,929,33.333333333333336,-0.972,-0.177,-0.183
229604,1755604521545,76.51,-134.45,-91.31,776,926,888,337,928,34.48275862068966,-0.973,-0.177,-0.183
229634,1755604521574,76.51,-134.49,-91.32,776,934,898,343,931,33.333333333333336,-0.972,-0.179,-0.184
229664,1755604521604,76.5,-134.51,-91.34,777,928,893,363,925,33.333333333333336,-0.972,-0.179,-0.185
229693,1755604521634,76.49,-134.52,-91.35,781,925,893,399,931,34.48275862068966,-0.972,-0.178,-0.184
229723,1755604521663,76.47,-134.56,-91.35,786,922,896,347,925,33.333333333333336,-0.972,-0.178,-0.185
229752,1755604521693,76.47,-134.58,-91.35,779,925,893,345,920,34.48275862068966,-0.972,-0.178,-0.185
229773,1755604521713,76.47,-134.63,-91.36,779,930,902,377,936,47.61904761904762,-0.973,-0.177,-0.185
229802,1755604521742,76.46,-134.69,-91.37,780,929,886,365,928,34.48275862068966,-0.972,-0.178,-0.184
229832,1755604521772,76.44,-134.69,-91.38,778,930,893,392,929,33.333333333333336,-0.97,-0.177,-0.186
229891,1755604521831,76.43,-134.77,-91.41,781,920,898,387,931,33.333333333333336,-0.971,-0.177,-0.185
229921,1755604521861,76.41,-134.78,-91.42,775,928,900,349,942,33.333333333333336,-0.971,-0.177,-0.186
229950,1755604521891,76.39,-134.79,-91.44,779,935,900,362,928,34.48275862068966,-0.971,-0.177,-0.187
229970,1755604521911,76.36,-134.83,-91.44,779,929,893,360,933,50.0,-0.971,-0.178,-0.188
230000,1755604521941,76.36,-134.86,-91.46,785,925,891,378,930,33.333333333333336,-0.971,-0.178,-0.187
230030,1755604521971,76.36,-134.89,-91.47,774,933,888,426,935,33.333333333333336,-0.971,-0.179,-0.187
230060,1755604522000,76.35,-134.91,-91.48,782,917,891,413,927,33.333333333333336,-0.97,-0.179,-0.187
230089,1755604522030,76.35,-134.88,-91.5,781,934,901,384,939,34.48275862068966,-0.97,-0.178,-0.187
230119,1755604522059,76.33,-134.89,-91.52,780,930,890,340,927,33.333333333333336,-0.969,-0.177,-0.186
230148,1755604522089,76.33,-134.92,-91.55,777,930,893,369,929,34.48275862068966,-0.969,-0.177,-0.186
230178,1755604522118,76.36,-134.95,-91.59,777,939,899,393,931,33.333333333333336,-0.97,-0.177,-0.189
230208,1755604522148,76.33,-134.98,-91.6,774,924,906,366,932,33.333333333333336,-0.971,-0.179,-0.191
230237,1755604522178,76.31,-135.0,-91.61,778,935,895,323,931,34.48275862068966,-0.971,-0.179,-0.19
230267,1755604522207,76.3,-135.05,-91.63,777,928,911,330,922,33.333333333333336,-0.971,-0.18,-0.188
230296,1755604522237,76.29,-135.05,-91.63,779,929,897,399,926,34.48275862068966,-0.971,-0.18,-0.188
230326,1755604522266,76.29,-135.07,-91.64,772,921,905,405,927,33.333333333333336,-0.97,-0.18,-0.189
230355,1755604522296,76.27,-135.08,-91.65,782,929,888,356,928,34.48275862068966,-0.971,-0.18,-0.188
230385,1755604522326,76.28,-135.1,-91.65,775,925,901,357,930,33.333333333333336,-0.971,-0.181,-0.189
230415,1755604522355,76.28,-135.12,-91.65,780,931,905,397,931,33.333333333333336,-0.97,-0.18,-0.19
230444,1755604522385,76.26,-135.14,-91.65,775,933,892,427,925,34.48275862068966,-0.971,-0.179,-0.187
