timestamp_ms,recv_timestamp_ms,pitch,roll,yaw,flex1,flex2,flex3,flex4,flex5,sampling_hz,accel_x,accel_y,accel_z
230681,1755602935706,22.28,-2.47,-28.44,801,917,771,427,817,33.333333333333336,-0.377,-0.039,0.934
230710,1755602935708,22.3,-2.49,-28.45,801,923,772,387,812,34.48275862068966,-0.376,-0.039,0.934
230739,1755602935710,22.3,-2.51,-28.45,796,917,778,319,809,34.48275862068966,-0.376,-0.041,0.934
230769,1755602935712,22.3,-2.49,-28.45,804,914,779,339,807,33.333333333333336,-0.377,-0.04,0.936
230799,1755602935714,22.31,-2.47,-28.44,798,917,775,418,814,33.333333333333336,-0.377,-0.04,0.935
230828,1755602935717,22.32,-2.46,-28.43,800,916,771,399,809,34.48275862068966,-0.378,-0.041,0.934
230857,1755602935718,22.33,-2.48,-28.43,798,913,775,316,811,34.48275862068966,-0.378,-0.041,0.933
230887,1755602935720,22.31,-2.47,-28.41,798,916,771,334,815,33.333333333333336,-0.377,-0.04,0.934
230917,1755602935722,22.31,-2.45,-28.4,794,919,770,395,811,33.333333333333336,-0.377,-0.039,0.935
230947,1755602935725,22.31,-2.45,-28.41,798,917,764,415,813,33.333333333333336,-0.376,-0.039,0.935
230977,1755602935727,22.32,-2.45,-28.4,794,907,774,378,814,33.333333333333336,-0.376,-0.039,0.934
231006,1755602935729,22.3,-2.45,-28.41,803,910,772,322,809,34.48275862068966,-0.375,-0.037,0.935
231036,1755602935731,22.3,-2.44,-28.43,794,919,776,343,817,33.333333333333336,-0.375,-0.037,0.935
231065,1755602935733,22.3,-2.44,-28.45,804,915,773,406,808,34.48275862068966,-0.376,-0.037,0.935
231095,1755602935735,22.32,-2.46,-28.47,800,926,770,399,810,33.333333333333336,-0.377,-0.038,0.934
231124,1755602935737,22.3,-2.46,-28.47,799,919,772,332,812,34.48275862068966,-0.377,-0.038,0.935
231154,1755602935739,22.29,-2.46,-28.48,793,919,769,323,814,33.333333333333336,-0.376,-0.038,0.936
231183,1755602935741,22.3,-2.45,-28.49,800,917,774,401,817,34.48275862068966,-0.375,-0.038,0.935
231213,1755602935743,22.32,-2.46,-28.51,799,908,773,418,805,33.333333333333336,-0.375,-0.038,0.933
231243,1755602935745,22.32,-2.46,-28.52,797,916,768,365,807,33.333333333333336,-0.377,-0.039,0.934
231272,1755602935747,22.33,-2.44,-28.52,796,921,780,348,812,34.48275862068966,-0.379,-0.039,0.935
231302,1755602935749,22.35,-2.43,-28.52,798,913,765,367,814,33.333333333333336,-0.379,-0.039,0.934
231332,1755602935751,22.35,-2.42,-28.52,803,922,774,433,813,33.333333333333336,-0.377,-0.038,0.933
231361,1755602935752,22.36,-2.43,-28.54,798,918,770,394,808,34.48275862068966,-0.376,-0.038,0.934
231390,1755602935778,22.36,-2.45,-28.55,799,914,770,339,811,34.48275862068966,-0.377,-0.039,0.935
231420,1755602935807,22.37,-2.44,-28.56,799,913,773,347,820,33.333333333333336,-0.378,-0.038,0.934
231479,1755602935866,22.38,-2.45,-28.58,799,919,776,419,811,33.333333333333336,-0.378,-0.038,0.932
231508,1755602935896,22.39,-2.45,-28.58,802,919,774,368,813,34.48275862068966,-0.378,-0.038,0.934
231538,1755602935925,22.42,-2.46,-28.59,797,927,779,353,813,33.333333333333336,-0.378,-0.038,0.934
231567,1755602935955,22.42,-2.47,-28.61,800,902,773,399,813,34.48275862068966,-0.378,-0.038,0.933
231597,1755602935984,22.44,-2.49,-28.63,795,917,770,431,816,33.333333333333336,-0.38,-0.039,0.931
231626,1755602936014,22.45,-2.51,-28.62,801,917,774,385,809,34.48275862068966,-0.383,-0.04,0.931
231656,1755602936043,22.43,-2.52,-28.6,799,909,772,315,815,33.333333333333336,-0.38,-0.04,0.932
231685,1755602936073,22.46,-2.53,-28.6,794,904,765,368,809,34.48275862068966,-0.379,-0.04,0.933
231715,1755602936102,22.43,-2.5,-28.59,796,919,766,438,816,33.333333333333336,-0.377,-0.04,0.933
231744,1755602936132,22.47,-2.51,-28.59,809,914,773,385,817,34.48275862068966,-0.376,-0.041,0.934
231774,1755602936161,22.47,-2.5,-28.59,800,916,775,340,807,33.333333333333336,-0.376,-0.039,0.933
231803,1755602936191,22.47,-2.5,-28.62,796,919,768,338,805,34.48275862068966,-0.376,-0.037,0.931
231833,1755602936221,22.47,-2.5,-28.65,804,919,776,408,811,33.333333333333336,-0.379,-0.039,0.933
231863,1755602936250,22.46,-2.49,-28.65,795,921,773,406,811,33.333333333333336,-0.379,-0.04,0.934
231892,1755602936280,22.47,-2.47,-28.64,806,915,768,348,814,34.48275862068966,-0.38,-0.04,0.934
231952,1755602936339,22.46,-2.46,-28.64,801,915,772,378,809,33.333333333333336,-0.379,-0.04,0.931
231981,1755602936369,22.47,-2.47,-28.62,800,915,765,412,813,34.48275862068966,-0.379,-0.04,0.933
232011,1755602936398,22.47,-2.45,-28.61,800,919,766,354,812,33.333333333333336,-0.38,-0.039,0.933
232040,1755602936428,22.45,-2.43,-28.61,793,912,764,308,812,34.48275862068966,-0.379,-0.038,0.932
232070,1755602936457,22.46,-2.42,-28.6,795,912,769,339,810,33.333333333333336,-0.379,-0.038,0.932
232099,1755602936487,22.46,-2.44,-28.6,802,917,770,379,808,34.48275862068966,-0.379,-0.037,0.931
232129,1755602936516,22.45,-2.45,-28.61,802,913,781,383,805,33.333333333333336,-0.379,-0.037,0.932
232158,1755602936546,22.45,-2.43,-28.61,800,911,771,319,808,34.48275862068966,-0.378,-0.038,0.934
232188,1755602936576,22.45,-2.38,-28.61,799,909,775,334,812,33.333333333333336,-0.378,-0.037,0.934
232218,1755602936605,22.45,-2.38,-28.62,802,915,772,387,810,33.333333333333336,-0.378,-0.037,0.932
232247,1755602936635,22.46,-2.38,-28.63,798,911,773,412,814,34.48275862068966,-0.379,-0.038,0.933
232277,1755602936665,22.48,-2.38,-28.63,802,907,778,398,807,33.333333333333336,-0.379,-0.037,0.932
232297,1755602936684,22.5,-2.38,-28.64,801,919,769,412,811,50.0,-0.378,-0.035,0.93
232326,1755602936714,22.49,-2.41,-28.65,804,923,778,364,808,34.48275862068966,-0.378,-0.032,0.929
232356,1755602936743,22.46,-2.42,-28.65,803,921,775,304,815,33.333333333333336,-0.379,-0.035,0.932
232385,1755602936773,22.47,-2.41,-28.63,800,922,775,359,811,34.48275862068966,-0.379,-0.04,0.938
232415,1755602936802,22.48,-2.35,-28.59,798,920,770,422,813,33.333333333333336,-0.377,-0.039,0.935
232474,1755602936861,22.46,-2.39,-28.59,800,916,775,313,811,33.333333333333336,-0.379,-0.036,0.931
232503,1755602936891,22.46,-2.4,-28.56,802,923,776,331,816,34.48275862068966,-0.382,-0.036,0.933
232533,1755602936920,22.47,-2.38,-28.53,803,924,766,411,808,33.333333333333336,-0.382,-0.037,0.934
232562,1755602936950,22.47,-2.35,-28.51,794,920,776,419,812,34.48275862068966,-0.381,-0.038,0.933
232592,1755602936980,22.46,-2.35,-28.5,798,913,772,334,812,33.333333333333336,-0.379,-0.038,0.933
232622,1755602937010,22.46,-2.34,-28.49,798,921,773,340,811,33.333333333333336,-0.379,-0.037,0.933
232651,1755602937039,22.43,-2.31,-28.47,802,917,768,376,813,34.48275862068966,-0.379,-0.035,0.933
232681,1755602937069,22.42,-2.29,-28.45,808,933,777,425,807,33.333333333333336,-0.379,-0.035,0.934
232711,1755602937098,22.42,-2.26,-28.43,796,921,769,391,815,33.333333333333336,-0.379,-0.035,0.933
232770,1755602937157,22.38,-2.23,-28.41,801,915,773,342,811,33.333333333333336,-0.377,-0.033,0.934
232799,1755602937187,22.38,-2.21,-28.41,802,912,770,413,814,34.48275862068966,-0.377,-0.031,0.934
232829,1755602937216,22.38,-2.19,-28.41,804,914,772,414,813,33.333333333333336,-0.377,-0.031,0.933
232858,1755602937245,22.37,-2.21,-28.43,794,900,773,330,805,34.48275862068966,-0.377,-0.032,0.932
232887,1755602937275,22.34,-2.2,-28.43,803,908,775,320,814,34.48275862068966,-0.378,-0.033,0.935
232917,1755602937305,22.32,-2.13,-28.43,808,906,771,384,812,33.333333333333336,-0.377,-0.032,0.936
232977,1755602937365,22.3,-2.08,-28.49,803,912,779,385,811,33.333333333333336,-0.376,-0.03,0.932
233026,1755602937414,22.34,-2.12,-28.56,802,921,775,369,812,34.48275862068966,-0.377,-0.033,0.932
233056,1755602937444,22.31,-2.11,-28.57,799,926,767,282,813,33.333333333333336,-0.379,-0.031,0.931
233086,1755602937473,22.29,-2.15,-28.56,804,916,774,328,807,33.333333333333336,-0.379,-0.037,0.934
233115,1755602937503,22.3,-2.16,-28.55,799,915,776,419,813,34.48275862068966,-0.376,-0.038,0.936
233145,1755602937533,22.26,-2.12,-28.54,798,912,777,402,816,33.333333333333336,-0.373,-0.035,0.934
233174,1755602937562,22.26,-2.15,-28.54,801,922,771,293,816,34.48275862068966,-0.373,-0.034,0.933
233204,1755602937592,22.25,-2.17,-28.54,801,916,773,325,816,33.333333333333336,-0.376,-0.036,0.935
233233,1755602937621,22.26,-2.17,-28.52,801,913,771,396,822,34.48275862068966,-0.377,-0.034,0.934
233263,1755602937651,22.28,-2.2,-28.51,801,911,773,405,816,33.333333333333336,-0.376,-0.031,0.931
233293,1755602937680,22.29,-2.26,-28.51,803,918,774,364,818,33.333333333333336,-0.374,-0.03,0.931
233322,1755602937710,22.31,-2.3,-28.54,799,917,770,335,806,34.48275862068966,-0.375,-0.032,0.935
233352,1755602937739,22.28,-2.31,-28.56,800,915,777,383,811,33.333333333333336,-0.375,-0.034,0.935
233381,1755602937769,22.29,-2.31,-28.58,796,916,768,426,809,34.48275862068966,-0.376,-0.035,0.935
233411,1755602937798,22.29,-2.29,-28.59,794,917,773,392,809,33.333333333333336,-0.377,-0.036,0.936
233440,1755602937828,22.3,-2.28,-28.6,800,918,772,336,806,34.48275862068966,-0.377,-0.036,0.935
233470,1755602937857,22.3,-2.27,-28.59,794,933,773,343,818,33.333333333333336,-0.377,-0.034,0.934
233499,1755602937887,22.31,-2.28,-28.59,799,914,778,421,809,34.48275862068966,-0.376,-0.031,0.933
233529,1755602937917,22.31,-2.31,-28.61,795,919,771,409,807,33.333333333333336,-0.373,-0.03,0.933
233558,1755602937946,22.31,-2.34,-28.65,799,916,772,341,812,34.48275862068966,-0.375,-0.033,0.934
233588,1755602937976,22.32,-2.34,-28.2,801,918,769,334,814,33.333333333333336,-0.377,-0.038,0.936
233618,1755602938006,22.34,-2.32,-28.19,801,906,771,405,811,33.333333333333336,-0.378,-0.041,0.936
233648,1755602938035,22.38,-2.31,-28.16,801,917,771,414,809,33.333333333333336,-0.378,-0.04,0.935
233677,1755602938065,22.4,-2.3,-28.15,801,910,776,396,813,34.48275862068966,-0.378,-0.037,0.934
233707,1755602938094,22.4,-2.29,-28.15,799,913,770,335,808,33.333333333333336,-0.376,-0.033,0.934
233736,1755602938124,22.38,-2.29,-28.18,802,913,769,352,810,34.48275862068966,-0.372,-0.03,0.933
233795,1755602938183,22.37,-2.3,-28.26,794,924,771,369,810,34.48275862068966,-0.374,-0.037,0.935
233825,1755602938213,22.4,-2.28,-28.26,802,918,773,312,811,33.333333333333336,-0.378,-0.038,0.934
233855,1755602938242,22.44,-2.28,-28.26,800,908,775,332,817,33.333333333333336,-0.381,-0.036,0.932
233884,1755602938272,22.47,-2.28,-28.25,800,918,776,408,808,34.48275862068966,-0.382,-0.034,0.93
233914,1755602938301,22.5,-2.31,-28.24,793,913,769,407,816,33.333333333333336,-0.381,-0.034,0.931
233943,1755602938331,22.54,-2.33,-28.24,799,913,776,376,816,34.48275862068966,-0.379,-0.034,0.932
233973,1755602938361,22.53,-2.34,-28.26,801,923,768,329,811,33.333333333333336,-0.377,-0.034,0.932
234002,1755602938390,22.52,-2.34,-28.3,792,920,772,353,817,34.48275862068966,-0.377,-0.035,0.935
234032,1755602938420,22.54,-2.3,-28.32,800,920,771,419,804,33.333333333333336,-0.379,-0.037,0.935
234091,1755602938479,22.55,-2.28,-28.33,799,916,766,323,812,34.48275862068966,-0.382,-0.037,0.931
234120,1755602938508,22.57,-2.29,-28.33,799,913,767,340,805,34.48275862068966,-0.381,-0.036,0.931
234150,1755602938537,22.6,-2.31,-28.34,797,906,770,421,814,33.333333333333336,-0.379,-0.034,0.931
234179,1755602938567,22.59,-2.32,-28.37,800,912,772,411,812,34.48275862068966,-0.377,-0.032,0.931
234209,1755602938597,22.59,-2.34,-28.42,800,912,769,355,814,33.333333333333336,-0.378,-0.035,0.931
234229,1755602938617,22.61,-2.36,-28.45,793,919,768,403,814,50.0,-0.381,-0.037,0.932
234259,1755602938646,22.65,-2.37,-28.46,801,915,775,324,807,33.333333333333336,-0.384,-0.039,0.933
234288,1755602938676,22.7,-2.37,-28.46,796,916,767,314,810,34.48275862068966,-0.384,-0.038,0.931
234318,1755602938706,22.73,-2.39,-28.46,786,916,769,381,816,33.333333333333336,-0.385,-0.039,0.93
234348,1755602938735,22.76,-2.43,-28.45,794,917,775,423,813,33.333333333333336,-0.386,-0.04,0.93
234377,1755602938765,22.77,-2.44,-28.42,800,906,775,378,811,34.48275862068966,-0.387,-0.041,0.931
234407,1755602938794,22.82,-2.43,-28.4,794,917,768,323,808,33.333333333333336,-0.385,-0.039,0.93
234436,1755602938824,22.86,-2.46,-28.42,801,921,776,339,810,34.48275862068966,-0.383,-0.035,0.928
234465,1755602938853,22.85,-2.51,-28.48,799,915,777,411,813,34.48275862068966,-0.381,-0.035,0.929
234495,1755602938883,22.84,-2.52,-28.53,797,911,773,398,806,33.333333333333336,-0.381,-0.037,0.932
234525,1755602938912,22.84,-2.51,-28.58,800,920,774,314,810,33.333333333333336,-0.382,-0.039,0.933
234584,1755602938971,22.85,-2.46,-28.65,796,910,774,411,810,33.333333333333336,-0.387,-0.043,0.93
234613,1755602939001,22.84,-2.46,-28.66,802,915,773,429,816,34.48275862068966,-0.388,-0.043,0.929
234643,1755602939030,22.82,-2.47,-28.68,791,917,767,352,812,33.333333333333336,-0.386,-0.041,0.93
234672,1755602939060,22.82,-2.47,-28.69,799,920,780,334,813,34.48275862068966,-0.385,-0.039,0.931
234702,1755602939090,22.82,-2.49,-28.7,795,917,774,369,809,33.333333333333336,-0.385,-0.04,0.931
234732,1755602939120,22.81,-2.51,-28.71,801,913,772,421,804,33.333333333333336,-0.386,-0.041,0.93
234761,1755602939149,22.79,-2.5,-28.7,799,914,769,386,819,34.48275862068966,-0.387,-0.042,0.931
234791,1755602939179,22.79,-2.5,-28.7,794,917,771,327,809,33.333333333333336,-0.387,-0.041,0.931
234821,1755602939208,22.81,-2.51,-28.69,798,917,776,326,810,33.333333333333336,-0.389,-0.041,0.93
234850,1755602939238,22.8,-2.53,-28.68,799,908,780,419,817,34.48275862068966,-0.39,-0.043,0.931
234880,1755602939267,22.82,-2.54,-28.65,800,912,774,413,819,33.333333333333336,-0.388,-0.043,0.931
234909,1755602939297,22.86,-2.54,-28.63,800,922,770,360,812,34.48275862068966,-0.387,-0.042,0.93
234939,1755602939327,22.94,-2.55,-28.63,799,915,776,327,803,33.333333333333336,-0.387,-0.042,0.932
234969,1755602939357,22.97,-2.51,-28.62,795,928,777,364,820,33.333333333333336,-0.385,-0.041,0.931
234998,1755602939387,22.99,-2.5,-28.63,801,915,770,437,812,34.48275862068966,-0.385,-0.041,0.93
235019,1755602939406,22.96,-2.49,-28.64,796,918,776,341,815,47.61904761904762,-0.385,-0.042,0.929
235048,1755602939436,22.95,-2.48,-28.65,801,916,776,422,816,34.48275862068966,-0.385,-0.043,0.931
235107,1755602939495,22.96,-2.47,-28.69,790,915,774,334,811,34.48275862068966,-0.385,-0.039,0.928
235137,1755602939524,22.93,-2.48,-28.71,796,923,774,341,815,33.333333333333336,-0.384,-0.039,0.929
235166,1755602939554,22.93,-2.49,-28.73,796,915,765,432,811,34.48275862068966,-0.384,-0.04,0.93
235196,1755602939583,22.92,-2.49,-28.74,800,917,771,419,813,33.333333333333336,-0.384,-0.042,0.931
235225,1755602939613,22.95,-2.5,-28.75,796,922,773,348,809,34.48275862068966,-0.385,-0.042,0.93
235255,1755602939642,22.92,-2.51,-28.75,796,919,763,331,810,33.333333333333336,-0.386,-0.041,0.929
235284,1755602939672,22.87,-2.53,-28.77,800,916,775,414,810,34.48275862068966,-0.387,-0.042,0.931
235304,1755602939692,22.89,-2.53,-28.77,795,921,770,346,813,50.0,-0.388,-0.042,0.931
235334,1755602939721,22.87,-2.55,-28.76,800,911,770,429,814,33.333333333333336,-0.389,-0.041,0.929
235363,1755602939751,22.88,-2.61,-28.76,798,916,774,427,814,34.48275862068966,-0.387,-0.042,0.93
235393,1755602939780,22.89,-2.61,-28.76,798,922,775,371,811,33.333333333333336,-0.385,-0.042,0.933
235422,1755602939810,22.94,-2.58,-28.77,802,916,778,344,811,34.48275862068966,-0.385,-0.042,0.934
235452,1755602939839,23.0,-2.54,-28.76,801,915,768,397,819,33.333333333333336,-0.388,-0.044,0.934
235481,1755602939869,23.01,-2.46,-28.7,796,918,771,418,814,34.48275862068966,-0.388,-0.044,0.934
235511,1755602939898,23.06,-2.43,-28.68,801,918,764,392,815,33.333333333333336,-0.388,-0.041,0.932
235540,1755602939928,23.1,-2.44,-28.67,805,919,771,318,816,34.48275862068966,-0.388,-0.041,0.929
235570,1755602939958,23.1,-2.46,-28.67,802,917,769,330,809,33.333333333333336,-0.389,-0.041,0.928
235600,1755602939987,23.1,-2.46,-28.68,802,913,774,422,811,33.333333333333336,-0.389,-0.037,0.928
235629,1755602940017,23.11,-2.5,-28.71,792,922,768,414,813,34.48275862068966,-0.388,-0.035,0.927
235659,1755602940046,23.09,-2.54,-28.75,802,913,772,348,808,33.333333333333336,-0.389,-0.037,0.928
235688,1755602940076,23.07,-2.56,-28.78,801,910,776,339,808,34.48275862068966,-0.392,-0.041,0.929
235718,1755602940106,23.08,-2.55,-28.76,799,915,767,398,820,33.333333333333336,-0.392,-0.043,0.93
235748,1755602940136,23.11,-2.55,-28.74,797,920,773,432,810,33.333333333333336,-0.392,-0.043,0.929
235778,1755602940165,23.09,-2.54,-28.72,800,914,771,389,811,33.333333333333336,-0.391,-0.041,0.928
235807,1755602940195,23.11,-2.56,-28.72,800,915,771,285,816,34.48275862068966,-0.391,-0.041,0.928
235837,1755602940224,23.14,-2.57,-28.7,791,918,772,331,818,33.333333333333336,-0.392,-0.042,0.929
235866,1755602940254,23.13,-2.56,-28.68,797,919,772,420,807,34.48275862068966,-0.392,-0.042,0.929
235896,1755602940283,23.15,-2.55,-28.67,798,917,778,410,814,33.333333333333336,-0.39,-0.04,0.928
235925,1755602940312,23.14,-2.55,-28.66,798,915,778,346,813,34.48275862068966,-0.388,-0.037,0.927
235954,1755602940342,23.14,-2.59,-28.69,795,923,775,326,810,34.48275862068966,-0.388,-0.036,0.927
235984,1755602940371,23.13,-2.63,-28.72,798,915,780,419,813,33.333333333333336,-0.389,-0.038,0.927
236013,1755602940401,23.1,-2.62,-28.72,803,917,776,386,815,34.48275862068966,-0.392,-0.042,0.929
236043,1755602940431,23.1,-2.58,-28.71,799,919,778,358,816,33.333333333333336,-0.393,-0.044,0.929
236073,1755602940460,23.06,-2.56,-28.69,800,916,770,339,813,33.333333333333336,-0.393,-0.044,0.927
236102,1755602940490,23.05,-2.57,-28.66,796,920,770,378,815,34.48275862068966,-0.392,-0.042,0.928
236161,1755602940549,23.05,-2.58,-28.64,798,916,773,384,816,34.48275862068966,-0.388,-0.038,0.927
236191,1755602940578,23.08,-2.6,-28.64,798,906,776,317,812,33.333333333333336,-0.387,-0.039,0.928
236220,1755602940608,23.11,-2.63,-28.65,795,924,777,338,811,34.48275862068966,-0.388,-0.039,0.928
236250,1755602940638,23.14,-2.67,-28.66,797,912,771,425,807,33.333333333333336,-0.388,-0.04,0.926
236280,1755602940668,23.13,-2.72,-28.69,794,916,772,409,807,33.333333333333336,-0.388,-0.04,0.926
236309,1755602940697,23.12,-2.74,-28.72,801,918,769,343,808,34.48275862068966,-0.389,-0.042,0.929
236339,1755602940727,23.13,-2.7,-28.75,804,919,770,342,814,33.333333333333336,-0.391,-0.043,0.931
236369,1755602940757,23.15,-2.67,-28.78,805,909,774,379,808,33.333333333333336,-0.392,-0.044,0.929
236399,1755602940786,23.13,-2.68,-28.8,798,914,772,439,820,33.333333333333336,-0.393,-0.044,0.925
236428,1755602940815,23.08,-2.75,-28.81,799,916,767,392,808,34.48275862068966,-0.395,-0.046,0.924
236457,1755602940845,23.01,-2.81,-28.82,793,918,771,324,816,34.48275862068966,-0.393,-0.048,0.925
236487,1755602940875,22.96,-2.85,-28.83,793,913,769,331,817,33.333333333333336,-0.389,-0.047,0.927
236517,1755602940905,22.93,-2.85,-28.83,796,922,778,424,809,33.333333333333336,-0.387,-0.043,0.929
236547,1755602940935,22.85,-2.71,-28.85,798,907,772,411,811,33.333333333333336,-0.386,-0.042,0.928
236576,1755602940964,22.85,-2.67,-28.85,791,918,769,355,813,34.48275862068966,-0.386,-0.043,0.928
236606,1755602940994,22.86,-2.67,-28.87,795,916,773,317,816,33.333333333333336,-0.385,-0.044,0.927
236636,1755602941023,22.87,-2.68,-28.89,801,903,770,352,811,33.333333333333336,-0.385,-0.043,0.926
236695,1755602941082,22.88,-2.73,-28.94,797,918,772,404,814,33.333333333333336,-0.386,-0.043,0.93
236724,1755602941112,22.87,-2.73,-28.95,799,918,775,330,813,34.48275862068966,-0.387,-0.043,0.93
236753,1755602941142,22.87,-2.72,-28.97,796,914,777,307,817,34.48275862068966,-0.388,-0.044,0.928
236773,1755602941161,22.87,-2.72,-28.97,796,919,775,329,812,50.0,-0.389,-0.046,0.929
236803,1755602941190,22.85,-2.74,-28.97,796,922,773,356,815,33.333333333333336,-0.389,-0.048,0.93
236832,1755602941220,22.87,-2.75,-28.96,800,916,776,429,811,34.48275862068966,-0.388,-0.049,0.931
236852,1755602941240,22.89,-2.75,-28.96,800,918,768,352,810,50.0,-0.386,-0.048,0.931
236882,1755602941269,22.9,-2.72,-28.96,797,915,773,411,809,33.333333333333336,-0.385,-0.045,0.929
236911,1755602941299,22.91,-2.76,-28.97,798,918,769,355,815,34.48275862068966,-0.382,-0.043,0.929
236941,1755602941328,22.9,-2.8,-28.99,798,903,776,302,803,33.333333333333336,-0.383,-0.045,0.932
236970,1755602941358,22.93,-2.8,-29.01,800,912,777,333,808,34.48275862068966,-0.385,-0.045,0.933
237000,1755602941388,22.92,-2.75,-29.0,801,926,775,420,805,33.333333333333336,-0.385,-0.045,0.931
237030,1755602941417,22.91,-2.77,-28.99,795,910,778,409,813,33.333333333333336,-0.386,-0.046,0.93
237079,1755602941467,22.88,-2.79,-28.96,798,904,768,423,812,50.0,-0.386,-0.045,0.931
237109,1755602941497,22.86,-2.78,-28.96,802,916,770,342,811,33.333333333333336,-0.385,-0.045,0.932
237139,1755602941526,22.86,-2.76,-28.97,793,922,781,346,813,33.333333333333336,-0.385,-0.044,0.932
237168,1755602941556,22.87,-2.75,-28.98,797,917,769,384,816,34.48275862068966,-0.385,-0.044,0.931
237198,1755602941585,22.86,-2.74,-28.99,795,924,769,417,820,33.333333333333336,-0.385,-0.044,0.93
237227,1755602941615,22.84,-2.76,-29.01,800,918,769,386,811,34.48275862068966,-0.385,-0.044,0.93
237257,1755602941644,22.84,-2.77,-29.02,800,916,770,320,813,33.333333333333336,-0.384,-0.045,0.932
237286,1755602941674,22.85,-2.72,-29.04,796,914,772,318,813,34.48275862068966,-0.385,-0.044,0.932
237316,1755602941703,22.87,-2.71,-29.06,795,919,773,366,810,33.333333333333336,-0.384,-0.043,0.93
237345,1755602941733,22.89,-2.73,-29.08,805,910,775,388,804,34.48275862068966,-0.384,-0.043,0.929
237375,1755602941763,22.88,-2.75,-29.1,792,903,774,339,814,33.333333333333336,-0.383,-0.042,0.93
237405,1755602941792,22.92,-2.77,-29.14,800,926,778,334,807,33.333333333333336,-0.384,-0.043,0.931
237434,1755602941822,22.91,-2.77,-29.16,799,912,774,412,811,34.48275862068966,-0.385,-0.044,0.931
237464,1755602941851,22.93,-2.78,-29.17,803,910,775,411,813,33.333333333333336,-0.384,-0.045,0.931
237523,1755602941910,22.98,-2.91,-29.23,797,915,771,328,814,33.333333333333336,-0.385,-0.043,0.928
237552,1755602941940,23.01,-2.98,-29.27,800,913,773,324,813,34.48275862068966,-0.389,-0.046,0.929
237611,1755602942000,23.06,-2.98,-29.26,794,912,769,382,807,34.48275862068966,-0.39,-0.051,0.932
237631,1755602942019,23.07,-2.99,-29.25,802,916,770,386,811,50.0,-0.388,-0.049,0.929
237661,1755602942049,23.07,-3.06,-29.26,800,915,774,379,809,33.333333333333336,-0.387,-0.047,0.928
237690,1755602942078,23.08,-3.13,-29.28,798,913,773,321,807,34.48275862068966,-0.386,-0.049,0.93
237720,1755602942108,23.12,-3.13,-29.29,794,913,776,345,810,33.333333333333336,-0.387,-0.051,0.932
237750,1755602942138,23.13,-3.09,-29.3,795,917,767,432,814,33.333333333333336,-0.389,-0.052,0.931
237779,1755602942167,23.13,-3.08,-29.29,800,918,770,408,805,34.48275862068966,-0.391,-0.052,0.929
237809,1755602942196,23.11,-3.08,-29.27,797,929,771,328,810,33.333333333333336,-0.389,-0.051,0.929
237838,1755602942226,23.09,-3.08,-29.26,795,911,772,294,809,34.48275862068966,-0.389,-0.049,0.929
237868,1755602942255,23.06,-3.11,-29.27,802,917,776,348,814,33.333333333333336,-0.388,-0.049,0.929
237897,1755602942285,23.03,-3.15,-29.29,793,922,771,378,810,34.48275862068966,-0.387,-0.05,0.93
237927,1755602942314,22.99,-3.16,-29.31,800,916,774,336,810,33.333333333333336,-0.387,-0.05,0.931
237956,1755602942344,22.98,-3.15,-29.34,789,913,771,324,820,34.48275862068966,-0.388,-0.051,0.93
237985,1755602942373,22.96,-3.17,-29.34,796,935,764,362,819,34.48275862068966,-0.389,-0.052,0.929
238015,1755602942403,22.95,-3.16,-29.33,796,910,772,424,813,33.333333333333336,-0.387,-0.052,0.93
238045,1755602942432,22.94,-3.18,-29.33,801,917,775,389,804,33.333333333333336,-0.387,-0.052,0.929
238074,1755602942462,22.92,-3.2,-29.33,794,921,772,317,807,34.48275862068966,-0.386,-0.051,0.928
238104,1755602942492,22.93,-3.24,-29.34,797,914,771,333,811,33.333333333333336,-0.385,-0.051,0.929
238133,1755602942521,22.94,-3.26,-29.35,799,919,776,406,813,34.48275862068966,-0.386,-0.052,0.931
238163,1755602942551,22.96,-3.26,-29.35,799,916,770,414,816,33.333333333333336,-0.386,-0.053,0.931
238192,1755602942580,22.96,-3.24,-29.36,801,922,775,350,810,34.48275862068966,-0.386,-0.054,0.93
238222,1755602942610,22.94,-3.24,-29.37,798,915,775,334,811,33.333333333333336,-0.387,-0.054,0.93
238282,1755602942669,22.94,-3.24,-29.37,796,917,774,417,808,33.333333333333336,-0.388,-0.053,0.929
238311,1755602942699,22.91,-3.24,-29.39,792,915,772,392,812,34.48275862068966,-0.387,-0.053,0.929
238341,1755602942728,22.89,-3.24,-29.4,801,922,770,319,803,33.333333333333336,-0.388,-0.055,0.929
238370,1755602942758,22.91,-3.23,-29.39,798,923,778,345,811,34.48275862068966,-0.388,-0.056,0.931
238399,1755602942788,22.92,-3.21,-29.38,796,916,773,409,810,34.48275862068966,-0.388,-0.055,0.931
238420,1755602942807,22.93,-3.19,-29.37,797,919,778,325,806,47.61904761904762,-0.386,-0.054,0.93
238449,1755602942837,22.93,-3.19,-29.37,799,916,772,412,810,34.48275862068966,-0.384,-0.053,0.93
238479,1755602942866,22.93,-3.18,-29.37,804,913,770,409,811,33.333333333333336,-0.383,-0.052,0.93
238508,1755602942896,22.95,-3.21,-29.37,798,917,767,330,811,34.48275862068966,-0.385,-0.052,0.93
238538,1755602942926,22.94,-3.24,-29.36,802,916,772,326,810,33.333333333333336,-0.386,-0.052,0.93
238568,1755602942955,22.97,-3.22,-29.34,800,913,772,377,812,33.333333333333336,-0.386,-0.052,0.931
238597,1755602942985,23.01,-3.18,-29.35,797,913,776,397,807,34.48275862068966,-0.385,-0.051,0.931
238627,1755602943015,22.99,-3.16,-29.35,799,913,781,356,811,33.333333333333336,-0.386,-0.051,0.929
238656,1755602943044,22.97,-3.21,-29.36,799,922,774,317,810,34.48275862068966,-0.387,-0.052,0.929
238686,1755602943074,22.95,-3.24,-29.36,803,907,771,347,809,33.333333333333336,-0.389,-0.052,0.932
238745,1755602943133,22.97,-3.15,-29.31,803,908,772,405,814,34.48275862068966,-0.387,-0.054,0.932
238774,1755602943162,22.98,-3.18,-29.3,795,915,765,322,814,34.48275862068966,-0.386,-0.053,0.929
238804,1755602943192,22.99,-3.23,-29.3,801,909,775,330,811,33.333333333333336,-0.387,-0.052,0.93
238834,1755602943221,23.0,-3.2,-29.29,797,925,781,396,810,33.333333333333336,-0.388,-0.052,0.932
238863,1755602943251,23.03,-3.16,-29.29,794,920,776,402,809,34.48275862068966,-0.387,-0.052,0.932
238893,1755602943281,23.08,-3.16,-29.29,795,914,773,342,810,33.333333333333336,-0.387,-0.052,0.93
238922,1755602943310,23.1,-3.17,-29.31,797,914,777,327,816,34.48275862068966,-0.386,-0.05,0.928
238982,1755602943369,23.15,-3.21,-29.36,793,920,771,422,811,33.333333333333336,-0.387,-0.048,0.93
239011,1755602943399,23.16,-3.2,-29.38,796,904,774,404,808,34.48275862068966,-0.389,-0.048,0.928
239041,1755602943429,23.17,-3.22,-29.41,795,915,780,340,806,33.333333333333336,-0.389,-0.051,0.927
239071,1755602943458,23.16,-3.23,-29.42,802,920,773,350,806,33.333333333333336,-0.39,-0.054,0.929
239100,1755602943488,23.16,-3.2,-29.43,792,916,775,384,815,34.48275862068966,-0.391,-0.053,0.929
239129,1755602943517,23.16,-3.15,-29.45,802,916,774,390,817,34.48275862068966,-0.391,-0.052,0.929
239159,1755602943547,23.2,-3.13,-29.48,800,923,765,323,814,33.333333333333336,-0.388,-0.051,0.927
239188,1755602943576,23.2,-3.14,-29.53,797,910,770,286,806,34.48275862068966,-0.388,-0.048,0.926
239218,1755602943606,23.2,-3.15,-29.56,800,919,775,362,811,33.333333333333336,-0.387,-0.048,0.927
239247,1755602943635,23.21,-3.17,-29.58,795,910,775,402,810,34.48275862068966,-0.388,-0.048,0.929
239307,1755602943694,23.19,-3.2,-29.61,799,909,774,313,814,33.333333333333336,-0.391,-0.051,0.926
239336,1755602943724,23.2,-3.23,-29.62,799,917,774,341,807,34.48275862068966,-0.392,-0.054,0.926
239366,1755602943753,23.2,-3.23,-29.61,800,918,770,413,809,33.333333333333336,-0.393,-0.055,0.928
239395,1755602943783,23.19,-3.21,-29.61,798,919,779,408,813,34.48275862068966,-0.392,-0.054,0.928
239424,1755602943812,23.19,-3.19,-29.62,795,910,772,329,817,34.48275862068966,-0.391,-0.052,0.928
