timestamp_ms,recv_timestamp_ms,pitch,roll,yaw,flex1,flex2,flex3,flex4,flex5,sampling_hz,accel_x,accel_y,accel_z
239454,1755602944275,23.2,-3.19,-29.64,799,922,767,340,809,33.333333333333336,-0.39,-0.052,0.928
239483,1755602944277,23.19,-3.17,-29.66,798,915,771,396,812,34.48275862068966,-0.39,-0.052,0.928
239513,1755602944279,23.21,-3.16,-29.68,799,922,773,363,808,33.333333333333336,-0.393,-0.054,0.928
239543,1755602944281,23.22,-3.14,-29.68,796,914,773,336,817,33.333333333333336,-0.394,-0.054,0.927
239572,1755602944282,23.15,-3.09,-29.65,800,917,771,312,810,34.48275862068966,-0.393,-0.053,0.927
239602,1755602944285,23.11,-3.07,-29.64,797,919,771,358,813,33.333333333333336,-0.393,-0.051,0.927
239631,1755602944287,23.08,-3.04,-29.64,794,909,774,414,814,34.48275862068966,-0.39,-0.05,0.928
239661,1755602944289,23.06,-3.01,-29.65,795,915,774,389,813,33.333333333333336,-0.389,-0.052,0.929
239690,1755602944291,23.07,-2.98,-29.64,791,916,769,320,814,34.48275862068966,-0.39,-0.053,0.929
239720,1755602944293,23.1,-3.0,-29.65,799,925,769,358,812,33.333333333333336,-0.39,-0.051,0.928
239750,1755602944295,23.09,-2.98,-29.64,798,914,769,426,811,33.333333333333336,-0.39,-0.049,0.928
239779,1755602944297,23.09,-2.99,-29.64,798,925,773,419,810,34.48275862068966,-0.389,-0.046,0.929
239809,1755602944299,23.09,-2.99,-29.66,800,916,768,332,807,33.333333333333336,-0.387,-0.045,0.927
239838,1755602944301,23.09,-3.02,-29.69,804,915,774,333,808,34.48275862068966,-0.388,-0.048,0.927
239868,1755602944303,23.09,-3.03,-29.69,798,915,767,400,816,33.333333333333336,-0.39,-0.051,0.928
239897,1755602944305,23.07,-3.03,-29.67,796,924,767,418,815,34.48275862068966,-0.39,-0.051,0.929
239927,1755602944315,23.09,-3.02,-29.66,800,932,773,368,807,33.333333333333336,-0.39,-0.049,0.929
239956,1755602944344,23.1,-2.99,-29.65,795,919,775,329,813,34.48275862068966,-0.392,-0.05,0.929
239986,1755602944373,23.09,-2.96,-29.63,798,922,779,360,816,33.333333333333336,-0.391,-0.052,0.928
240015,1755602944403,23.09,-2.97,-29.61,796,914,765,423,807,34.48275862068966,-0.388,-0.05,0.927
240074,1755602944462,23.1,-3.01,-29.64,798,907,780,334,816,34.48275862068966,-0.388,-0.044,0.93
240104,1755602944492,23.13,-3.0,-29.66,789,912,770,353,814,33.333333333333336,-0.388,-0.045,0.93
240133,1755602944522,23.14,-3.0,-29.69,795,917,775,425,813,34.48275862068966,-0.388,-0.047,0.929
240163,1755602944551,23.13,-3.01,-29.72,796,923,774,417,821,33.333333333333336,-0.39,-0.048,0.928
240193,1755602944581,23.13,-3.02,-29.73,794,921,773,356,816,33.333333333333336,-0.392,-0.05,0.931
240223,1755602944610,23.15,-2.99,-29.73,793,920,776,328,808,33.333333333333336,-0.389,-0.049,0.932
240252,1755602944640,23.17,-2.96,-29.74,796,901,766,385,809,34.48275862068966,-0.386,-0.046,0.93
240282,1755602944669,23.14,-2.97,-29.76,796,913,775,432,808,33.333333333333336,-0.386,-0.045,0.928
240311,1755602944699,23.13,-2.99,-29.79,799,925,771,408,809,34.48275862068966,-0.388,-0.046,0.93
240341,1755602944728,23.17,-2.99,-29.8,791,915,770,341,812,33.333333333333336,-0.389,-0.048,0.93
240370,1755602944758,23.17,-2.98,-29.79,799,920,773,352,817,34.48275862068966,-0.391,-0.048,0.928
240400,1755602944787,23.16,-3.01,-29.79,797,911,774,425,814,33.333333333333336,-0.39,-0.049,0.927
240429,1755602944817,23.17,-3.03,-29.78,801,911,775,412,808,34.48275862068966,-0.39,-0.051,0.929
240459,1755602944847,23.16,-3.04,-29.75,794,909,771,342,814,33.333333333333336,-0.39,-0.05,0.929
240488,1755602944876,23.16,-3.03,-29.73,796,910,773,343,810,34.48275862068966,-0.39,-0.048,0.928
240518,1755602944906,23.16,-3.04,-29.73,792,914,775,392,811,33.333333333333336,-0.39,-0.047,0.928
240548,1755602944936,23.18,-3.06,-29.74,789,919,768,378,808,33.333333333333336,-0.391,-0.048,0.927
240607,1755602944995,23.18,-3.03,-29.72,793,916,777,313,812,33.333333333333336,-0.391,-0.05,0.929
240636,1755602945024,23.21,-3.01,-29.72,799,920,778,349,811,34.48275862068966,-0.391,-0.049,0.929
240666,1755602945053,23.19,-3.0,-29.72,792,912,768,412,810,33.333333333333336,-0.389,-0.047,0.927
240695,1755602945083,23.18,-2.99,-29.76,800,912,769,405,809,34.48275862068966,-0.388,-0.047,0.926
240725,1755602945112,23.17,-3.0,-29.78,795,925,763,328,820,33.333333333333336,-0.39,-0.047,0.928
240754,1755602945142,23.18,-2.98,-29.79,794,907,774,336,817,34.48275862068966,-0.392,-0.048,0.928
240784,1755602945172,23.18,-2.96,-29.8,798,927,768,403,811,33.333333333333336,-0.391,-0.048,0.928
240814,1755602945201,23.16,-2.97,-29.82,794,910,771,419,813,33.333333333333336,-0.389,-0.047,0.926
240843,1755602945231,23.17,-3.0,-29.85,792,914,773,367,809,34.48275862068966,-0.388,-0.046,0.927
240873,1755602945260,23.16,-3.0,-29.88,796,924,763,323,818,33.333333333333336,-0.389,-0.047,0.928
240902,1755602945290,23.14,-2.96,-29.88,793,912,772,382,814,34.48275862068966,-0.389,-0.048,0.927
240931,1755602945320,23.17,-2.97,-29.9,798,911,774,421,809,34.48275862068966,-0.391,-0.048,0.927
240961,1755602945349,23.17,-2.98,-29.92,793,935,775,410,806,33.333333333333336,-0.39,-0.048,0.927
240991,1755602945379,23.17,-2.98,-29.94,797,911,763,325,811,33.333333333333336,-0.39,-0.048,0.927
241020,1755602945408,23.15,-2.98,-29.94,792,903,768,340,814,34.48275862068966,-0.389,-0.048,0.927
241050,1755602945438,23.15,-2.94,-29.95,794,908,775,421,806,33.333333333333336,-0.39,-0.047,0.929
241109,1755602945497,23.14,-2.93,-29.96,800,917,770,353,822,33.333333333333336,-0.39,-0.048,0.926
241139,1755602945526,23.12,-2.96,-29.95,795,911,770,340,803,33.333333333333336,-0.391,-0.048,0.927
241168,1755602945556,23.14,-2.97,-29.94,796,915,769,390,820,34.48275862068966,-0.392,-0.048,0.928
241197,1755602945585,23.16,-2.91,-29.91,799,915,775,430,812,34.48275862068966,-0.392,-0.049,0.93
241256,1755602945644,23.18,-2.88,-29.87,794,908,773,324,819,34.48275862068966,-0.389,-0.047,0.927
241286,1755602945674,23.18,-2.93,-29.88,793,910,772,345,813,33.333333333333336,-0.39,-0.047,0.926
241316,1755602945703,23.16,-2.93,-29.88,798,918,778,427,813,33.333333333333336,-0.39,-0.046,0.929
241345,1755602945733,23.16,-2.89,-29.88,799,917,776,419,810,34.48275862068966,-0.389,-0.046,0.928
241404,1755602945792,23.17,-2.9,-29.89,798,904,771,326,811,34.48275862068966,-0.391,-0.047,0.926
241434,1755602945822,23.16,-2.9,-29.89,797,915,773,400,815,33.333333333333336,-0.39,-0.046,0.926
241464,1755602945851,23.16,-2.91,-29.89,799,922,767,399,804,33.333333333333336,-0.389,-0.046,0.927
241493,1755602945881,23.14,-2.9,-29.91,798,912,770,356,811,34.48275862068966,-0.389,-0.045,0.927
241523,1755602945910,23.14,-2.91,-29.92,798,911,773,327,812,33.333333333333336,-0.389,-0.045,0.927
241552,1755602945940,23.14,-2.91,-29.92,795,919,771,365,808,34.48275862068966,-0.39,-0.047,0.928
241582,1755602945969,23.14,-2.91,-29.91,794,919,773,412,816,33.333333333333336,-0.389,-0.047,0.928
241611,1755602945999,23.14,-2.9,-29.91,797,923,777,372,811,34.48275862068966,-0.389,-0.046,0.928
241641,1755602946028,23.14,-2.89,-29.92,800,911,771,325,813,33.333333333333336,-0.389,-0.046,0.928
241670,1755602946058,23.13,-2.89,-29.93,791,912,771,330,816,34.48275862068966,-0.389,-0.045,0.927
241700,1755602946088,23.14,-2.89,-29.94,795,912,773,411,814,33.333333333333336,-0.389,-0.046,0.927
241729,1755602946117,23.12,-2.88,-29.93,802,919,769,409,810,34.48275862068966,-0.39,-0.046,0.927
241759,1755602946147,23.14,-2.88,-29.93,797,916,782,336,811,33.333333333333336,-0.39,-0.046,0.927
241789,1755602946176,23.13,-2.87,-29.92,794,917,771,288,813,33.333333333333336,-0.389,-0.044,0.928
241818,1755602946206,23.12,-2.86,-29.92,796,911,772,369,812,34.48275862068966,-0.388,-0.044,0.927
241848,1755602946235,23.1,-2.87,-29.92,795,915,771,396,811,33.333333333333336,-0.387,-0.045,0.926
241877,1755602946265,23.1,-2.9,-29.92,801,911,770,365,808,34.48275862068966,-0.389,-0.046,0.927
241936,1755602946324,23.1,-2.9,-29.89,795,909,773,344,808,34.48275862068966,-0.39,-0.046,0.928
241966,1755602946354,23.11,-2.89,-29.89,795,909,771,423,811,33.333333333333336,-0.389,-0.045,0.927
241996,1755602946383,23.09,-2.89,-29.9,796,911,774,417,811,33.333333333333336,-0.388,-0.044,0.927
242025,1755602946413,23.1,-2.88,-29.92,804,908,771,341,808,34.48275862068966,-0.388,-0.045,0.928
242055,1755602946442,23.11,-2.88,-29.93,795,917,774,347,806,33.333333333333336,-0.389,-0.046,0.928
242084,1755602946472,23.07,-2.85,-29.93,797,916,771,408,812,34.48275862068966,-0.389,-0.045,0.927
242114,1755602946501,23.11,-2.86,-29.94,792,917,772,418,811,33.333333333333336,-0.389,-0.045,0.926
242143,1755602946531,23.11,-2.87,-29.95,799,907,769,354,809,34.48275862068966,-0.389,-0.044,0.926
242172,1755602946560,23.1,-2.89,-29.97,798,917,771,291,811,34.48275862068966,-0.388,-0.044,0.926
242202,1755602946590,23.11,-2.9,-30.0,795,907,774,361,808,33.333333333333336,-0.388,-0.046,0.927
242231,1755602946619,23.13,-2.9,-30.01,806,924,770,407,812,34.48275862068966,-0.388,-0.046,0.927
242261,1755602946649,23.14,-2.89,-30.01,794,924,770,398,811,33.333333333333336,-0.388,-0.045,0.927
242291,1755602946679,23.14,-2.88,-30.02,798,919,768,337,806,33.333333333333336,-0.388,-0.044,0.927
242321,1755602946708,23.15,-2.89,-30.02,788,916,773,340,810,33.333333333333336,-0.39,-0.046,0.927
242409,1755602946798,23.16,-2.95,-30.03,798,916,773,346,821,34.48275862068966,-0.389,-0.046,0.927
242430,1755602946817,23.16,-2.96,-30.03,793,913,777,424,815,47.61904761904762,-0.39,-0.046,0.928
242459,1755602946847,23.14,-2.95,-30.04,797,926,768,352,812,34.48275862068966,-0.389,-0.046,0.928
242489,1755602946877,23.16,-2.97,-30.05,794,921,772,343,814,33.333333333333336,-0.389,-0.046,0.927
242518,1755602946907,23.16,-2.98,-30.07,802,915,774,408,808,34.48275862068966,-0.39,-0.047,0.926
242548,1755602946936,23.17,-3.01,-30.08,791,908,774,416,817,33.333333333333336,-0.391,-0.048,0.927
242578,1755602946966,23.19,-3.02,-30.08,795,920,774,390,811,33.333333333333336,-0.392,-0.049,0.928
242608,1755602946995,23.18,-3.0,-30.07,798,927,777,312,811,33.333333333333336,-0.391,-0.05,0.927
242637,1755602947025,23.19,-3.01,-30.08,799,921,779,332,813,34.48275862068966,-0.391,-0.049,0.925
242667,1755602947055,23.18,-3.04,-30.08,798,914,771,422,812,33.333333333333336,-0.392,-0.048,0.927
242696,1755602947084,23.19,-3.03,-30.07,799,903,773,410,815,34.48275862068966,-0.39,-0.048,0.928
242726,1755602947114,23.2,-3.01,-30.08,799,918,778,363,812,33.333333333333336,-0.388,-0.047,0.928
242756,1755602947143,23.2,-2.99,-30.09,797,914,774,348,808,33.333333333333336,-0.389,-0.047,0.928
242785,1755602947173,23.21,-3.02,-30.14,796,915,770,380,813,34.48275862068966,-0.386,-0.047,0.926
242815,1755602947202,23.21,-3.02,-30.17,793,913,770,418,811,33.333333333333336,-0.387,-0.048,0.926
242844,1755602947232,23.21,-3.05,-30.2,799,916,774,388,810,34.48275862068966,-0.39,-0.049,0.927
242874,1755602947262,23.21,-3.07,-30.21,793,917,776,323,806,33.333333333333336,-0.391,-0.048,0.926
242904,1755602947291,23.21,-3.08,-30.23,789,921,775,339,807,33.333333333333336,-0.392,-0.05,0.927
242933,1755602947321,23.21,-3.06,-30.24,795,913,772,417,814,34.48275862068966,-0.393,-0.052,0.927
242963,1755602947350,23.22,-3.05,-30.24,792,916,768,410,813,33.333333333333336,-0.395,-0.052,0.925
242992,1755602947380,23.22,-3.08,-30.22,799,919,772,325,814,34.48275862068966,-0.395,-0.051,0.923
243022,1755602947410,23.2,-3.09,-30.21,795,924,774,287,811,33.333333333333336,-0.395,-0.051,0.932
243051,1755602947439,23.18,-3.08,-30.19,796,925,768,374,814,34.48275862068966,-0.392,-0.05,0.932
243081,1755602947469,23.18,-3.07,-30.19,797,906,770,406,813,33.333333333333336,-0.389,-0.051,0.931
243111,1755602947498,23.17,-3.07,-30.2,797,906,772,337,811,33.333333333333336,-0.389,-0.052,0.931
243140,1755602947528,23.17,-3.06,-30.19,798,919,769,308,819,34.48275862068966,-0.39,-0.052,0.931
243170,1755602947557,23.17,-3.05,-30.18,798,921,774,356,812,33.333333333333336,-0.391,-0.05,0.93
243199,1755602947587,23.18,-3.05,-30.16,793,911,775,423,810,34.48275862068966,-0.39,-0.048,0.929
243258,1755602947646,23.13,-3.09,-30.17,796,902,770,325,814,34.48275862068966,-0.387,-0.048,0.929
243288,1755602947675,23.15,-3.09,-30.18,801,900,773,325,804,33.333333333333336,-0.389,-0.05,0.93
243317,1755602947705,23.16,-3.07,-30.17,793,921,769,402,804,34.48275862068966,-0.39,-0.051,0.93
243347,1755602947734,23.15,-3.04,-30.15,794,916,768,393,818,33.333333333333336,-0.39,-0.051,0.929
243376,1755602947764,23.15,-3.04,-30.13,800,915,771,343,814,34.48275862068966,-0.39,-0.049,0.928
243406,1755602947794,23.13,-3.04,-30.12,794,911,771,331,807,33.333333333333336,-0.39,-0.048,0.928
243436,1755602947823,23.13,-3.03,-30.11,796,915,776,371,806,33.333333333333336,-0.389,-0.049,0.929
243465,1755602947853,23.13,-3.02,-30.11,793,918,770,433,808,34.48275862068966,-0.389,-0.049,0.929
243495,1755602947882,23.11,-3.01,-30.1,794,911,778,409,817,33.333333333333336,-0.389,-0.047,0.928
243524,1755602947912,23.09,-3.0,-30.11,798,905,782,340,812,34.48275862068966,-0.386,-0.047,0.928
243554,1755602947941,23.08,-3.02,-30.13,796,910,773,352,813,33.333333333333336,-0.385,-0.046,0.928
243583,1755602947971,23.08,-3.03,-30.14,800,916,774,415,819,34.48275862068966,-0.387,-0.047,0.93
243613,1755602948000,23.08,-3.01,-30.14,792,922,776,399,815,33.333333333333336,-0.389,-0.047,0.93
243672,1755602948060,23.07,-3.02,-30.15,795,912,773,323,808,33.333333333333336,-0.39,-0.048,0.928
243701,1755602948089,23.08,-3.04,-30.15,797,911,775,390,813,34.48275862068966,-0.39,-0.048,0.929
243731,1755602948118,23.08,-3.03,-30.13,791,912,772,424,814,33.333333333333336,-0.39,-0.048,0.93
243760,1755602948148,23.09,-3.02,-30.12,795,920,768,369,806,34.48275862068966,-0.39,-0.048,0.929
243790,1755602948177,23.1,-3.02,-30.11,803,917,770,322,808,33.333333333333336,-0.389,-0.048,0.928
243819,1755602948207,23.1,-3.04,-30.11,795,919,775,357,813,34.48275862068966,-0.389,-0.048,0.929
243848,1755602948236,23.12,-3.04,-30.09,790,915,769,425,806,34.48275862068966,-0.39,-0.048,0.93
243878,1755602948266,23.14,-3.05,-30.07,796,911,775,403,805,33.333333333333336,-0.389,-0.047,0.929
243907,1755602948295,23.15,-3.05,-30.07,794,915,767,311,809,34.48275862068966,-0.387,-0.046,0.929
243937,1755602948325,23.14,-3.05,-30.06,801,919,769,333,807,33.333333333333336,-0.386,-0.046,0.93
243967,1755602948354,23.16,-3.06,-30.06,794,919,774,418,812,33.333333333333336,-0.386,-0.046,0.929
243996,1755602948384,23.14,-3.06,-30.08,796,916,774,415,815,34.48275862068966,-0.386,-0.046,0.928
244026,1755602948413,23.14,-3.08,-30.1,797,917,775,305,819,33.333333333333336,-0.388,-0.046,0.928
244055,1755602948443,23.15,-3.09,-30.11,800,920,773,320,817,34.48275862068966,-0.39,-0.047,0.928
244085,1755602948472,23.14,-3.06,-30.11,799,914,773,404,815,33.333333333333336,-0.391,-0.047,0.928
244114,1755602948502,23.14,-3.06,-30.14,796,915,766,439,817,34.48275862068966,-0.39,-0.046,0.929
244144,1755602948531,23.12,-3.07,-30.16,795,924,767,380,806,33.333333333333336,-0.389,-0.047,0.929
244173,1755602948561,23.11,-3.09,-30.19,795,911,778,335,818,34.48275862068966,-0.388,-0.05,0.929
244203,1755602948591,23.11,-3.08,-30.21,796,912,766,357,811,33.333333333333336,-0.389,-0.05,0.928
244233,1755602948620,23.11,-3.08,-30.23,791,916,773,425,812,33.333333333333336,-0.39,-0.049,0.928
244262,1755602948650,23.13,-3.09,-30.23,792,923,771,409,810,34.48275862068966,-0.391,-0.048,0.927
244291,1755602948679,23.13,-3.08,-30.22,798,911,774,343,816,34.48275862068966,-0.391,-0.048,0.927
244321,1755602948709,23.16,-3.11,-30.24,796,916,773,342,808,33.333333333333336,-0.389,-0.048,0.926
244350,1755602948738,23.17,-3.16,-30.27,792,914,768,427,809,34.48275862068966,-0.389,-0.049,0.927
244410,1755602948797,23.15,-3.15,-30.29,798,917,777,355,812,33.333333333333336,-0.389,-0.051,0.931
244439,1755602948827,23.16,-3.13,-30.29,800,916,773,334,809,34.48275862068966,-0.389,-0.05,0.928
244469,1755602948857,23.15,-3.14,-30.29,802,915,779,383,817,33.333333333333336,-0.389,-0.05,0.925
244498,1755602948886,23.14,-3.17,-30.3,797,921,775,419,816,34.48275862068966,-0.389,-0.05,0.927
244528,1755602948915,23.1,-3.15,-30.3,796,907,774,374,807,33.333333333333336,-0.39,-0.051,0.931
244557,1755602948945,23.12,-3.12,-30.29,788,914,768,311,805,34.48275862068966,-0.389,-0.05,0.93
244586,1755602948974,23.12,-3.11,-30.28,798,916,777,347,820,34.48275862068966,-0.389,-0.049,0.927
244616,1755602949004,23.12,-3.13,-30.29,800,915,771,429,816,33.333333333333336,-0.39,-0.05,0.926
244646,1755602949033,23.11,-3.15,-30.3,799,925,771,420,806,33.333333333333336,-0.39,-0.05,0.928
244675,1755602949063,23.12,-3.14,-30.3,794,918,768,320,811,34.48275862068966,-0.389,-0.051,0.929
244705,1755602949092,23.15,-3.11,-30.29,795,918,775,337,816,33.333333333333336,-0.388,-0.05,0.929
244734,1755602949122,23.18,-3.11,-30.31,792,917,767,415,812,34.48275862068966,-0.389,-0.048,0.927
244764,1755602949151,23.17,-3.14,-30.32,795,907,779,416,810,33.333333333333336,-0.39,-0.047,0.927
244793,1755602949181,23.15,-3.12,-30.35,805,907,764,368,814,34.48275862068966,-0.389,-0.048,0.927
244823,1755602949210,23.15,-3.12,-30.36,811,920,769,336,807,33.333333333333336,-0.39,-0.051,0.93
244852,1755602949240,23.13,-3.1,-30.37,795,912,771,376,804,34.48275862068966,-0.391,-0.052,0.93
244882,1755602949269,23.14,-3.08,-30.36,801,919,768,436,809,33.333333333333336,-0.392,-0.052,0.929
244911,1755602949299,23.14,-3.07,-30.34,797,916,776,396,812,34.48275862068966,-0.391,-0.05,0.927
244941,1755602949328,23.13,-3.07,-30.33,795,919,771,331,814,33.333333333333336,-0.39,-0.049,0.927
244970,1755602949358,23.12,-3.09,-30.33,795,914,775,351,811,34.48275862068966,-0.389,-0.049,0.929
245000,1755602949388,23.13,-3.07,-30.33,800,913,776,431,812,33.333333333333336,-0.388,-0.049,0.929
245029,1755602949417,23.11,-3.05,-30.35,797,909,777,411,816,34.48275862068966,-0.388,-0.049,0.928
245059,1755602949447,23.11,-3.06,-30.36,796,911,773,340,810,33.333333333333336,-0.39,-0.049,0.927
245088,1755602949476,23.1,-3.06,-30.37,800,914,773,322,818,34.48275862068966,-0.39,-0.049,0.927
245118,1755602949505,23.09,-3.04,-30.37,799,909,773,385,811,33.333333333333336,-0.389,-0.049,0.928
245147,1755602949535,23.08,-3.04,-30.38,791,918,772,424,814,34.48275862068966,-0.387,-0.048,0.929
245177,1755602949565,23.06,-3.03,-30.39,795,905,770,368,809,33.333333333333336,-0.387,-0.047,0.929
245207,1755602949595,23.06,-3.03,-30.4,799,918,776,315,816,33.333333333333336,-0.388,-0.048,0.928
245236,1755602949624,23.06,-3.04,-30.4,792,927,765,345,814,34.48275862068966,-0.389,-0.049,0.927
245266,1755602949654,23.06,-3.06,-30.41,796,915,775,408,811,33.333333333333336,-0.388,-0.048,0.927
245295,1755602949683,23.06,-3.06,-30.41,797,922,774,385,813,34.48275862068966,-0.388,-0.047,0.928
245325,1755602949713,23.05,-3.05,-30.42,789,916,771,323,812,33.333333333333336,-0.388,-0.047,0.929
245354,1755602949742,23.06,-3.05,-30.44,795,915,769,326,815,34.48275862068966,-0.388,-0.048,0.928
245384,1755602949771,23.07,-3.06,-30.45,797,914,775,413,807,33.333333333333336,-0.389,-0.049,0.928
245413,1755602949801,23.05,-3.06,-30.46,799,911,767,423,813,34.48275862068966,-0.389,-0.049,0.929
245443,1755602949830,23.05,-3.05,-30.47,796,922,771,308,813,33.333333333333336,-0.388,-0.049,0.93
245472,1755602949860,23.05,-3.04,-30.49,797,903,771,317,809,34.48275862068966,-0.386,-0.047,0.929
245502,1755602949889,23.04,-3.04,-30.53,804,910,774,389,808,33.333333333333336,-0.387,-0.048,0.929
245561,1755602949948,23.07,-3.07,-30.55,785,924,776,382,821,33.333333333333336,-0.387,-0.047,0.928
245619,1755602950007,23.08,-3.13,-30.61,795,911,776,354,812,34.48275862068966,-0.386,-0.048,0.929
245678,1755602950066,23.13,-3.16,-30.66,794,917,763,408,813,34.48275862068966,-0.389,-0.051,0.93
245708,1755602950096,23.15,-3.16,-30.66,798,905,772,336,811,33.333333333333336,-0.393,-0.053,0.929
245728,1755602950116,23.16,-3.16,-30.64,797,914,770,423,814,50.0,-0.395,-0.055,0.929
245778,1755602950166,23.21,-3.15,-30.6,796,916,770,387,812,33.333333333333336,-0.392,-0.053,0.928
245807,1755602950195,23.2,-3.17,-30.6,794,917,774,284,809,34.48275862068966,-0.39,-0.051,0.928
245837,1755602950225,23.22,-3.17,-30.61,796,919,776,324,811,33.333333333333336,-0.393,-0.053,0.93
245867,1755602950254,23.23,-3.15,-30.58,792,916,772,418,810,33.333333333333336,-0.393,-0.052,0.929
245896,1755602950284,23.25,-3.17,-30.58,794,923,770,418,813,34.48275862068966,-0.391,-0.05,0.926
245926,1755602950313,23.22,-3.18,-30.59,791,925,775,334,814,33.333333333333336,-0.39,-0.05,0.926
245955,1755602950343,23.22,-3.18,-30.6,791,906,769,350,811,34.48275862068966,-0.391,-0.051,0.928
246014,1755602950402,23.23,-3.14,-30.61,794,908,780,416,814,33.333333333333336,-0.391,-0.05,0.926
246044,1755602950431,23.2,-3.15,-30.63,792,921,771,362,809,33.333333333333336,-0.39,-0.05,0.925
246073,1755602950461,23.23,-3.19,-30.65,802,912,774,331,815,34.48275862068966,-0.388,-0.051,0.926
246103,1755602950490,23.23,-3.18,-30.68,798,914,774,378,812,33.333333333333336,-0.388,-0.05,0.927
246132,1755602950520,23.24,-3.17,-30.71,794,913,769,427,816,34.48275862068966,-0.389,-0.049,0.926
246162,1755602950549,23.24,-3.19,-30.74,795,915,773,406,807,33.333333333333336,-0.39,-0.05,0.926
246191,1755602950579,23.23,-3.19,-30.77,792,918,771,315,811,34.48275862068966,-0.392,-0.051,0.925
246221,1755602950609,23.23,-3.19,-30.78,795,919,772,341,811,33.333333333333336,-0.394,-0.052,0.924
246250,1755602950638,23.21,-3.18,-30.78,793,916,772,385,813,34.48275862068966,-0.394,-0.053,0.925
246309,1755602950697,23.21,-3.21,-30.83,794,917,766,348,812,34.48275862068966,-0.393,-0.053,0.925
246368,1755602950756,23.23,-3.2,-30.83,798,925,775,391,808,34.48275862068966,-0.395,-0.053,0.924
246398,1755602950786,23.21,-3.2,-30.83,794,911,777,428,805,33.333333333333336,-0.392,-0.051,0.923
246427,1755602950816,23.18,-3.23,-30.86,797,913,781,392,818,34.48275862068966,-0.389,-0.051,0.924
246457,1755602950845,23.15,-3.24,-30.89,795,924,771,320,812,33.333333333333336,-0.39,-0.052,0.927
246487,1755602950874,23.17,-3.23,-30.89,795,907,776,338,806,33.333333333333336,-0.394,-0.054,0.928
246516,1755602950904,23.16,-3.21,-30.87,798,921,774,424,811,34.48275862068966,-0.396,-0.055,0.926
246545,1755602950933,23.14,-3.2,-30.83,796,915,780,402,807,34.48275862068966,-0.394,-0.055,0.924
246575,1755602950963,23.15,-3.22,-30.81,791,910,778,318,807,33.333333333333336,-0.392,-0.053,0.925
246605,1755602950992,23.14,-3.2,-30.8,794,906,776,323,810,33.333333333333336,-0.389,-0.052,0.928
246634,1755602951022,23.14,-3.17,-30.78,795,913,770,411,811,34.48275862068966,-0.389,-0.052,0.929
246664,1755602951051,23.15,-3.16,-30.77,800,921,777,416,814,33.333333333333336,-0.39,-0.052,0.927
246693,1755602951081,23.15,-3.17,-30.76,793,911,774,357,808,34.48275862068966,-0.39,-0.051,0.924
246723,1755602951111,23.13,-3.17,-30.75,793,914,774,327,809,33.333333333333336,-0.389,-0.049,0.926
246753,1755602951141,23.12,-3.19,-30.76,797,912,774,331,815,33.333333333333336,-0.387,-0.047,0.926
246812,1755602951200,23.09,-3.22,-30.86,792,925,773,383,815,33.333333333333336,-0.386,-0.049,0.929
246832,1755602951219,23.08,-3.22,-30.89,798,920,764,395,806,50.0,-0.388,-0.052,0.929
246891,1755602951278,23.1,-3.2,-30.88,794,914,771,320,808,33.333333333333336,-0.393,-0.056,0.928
246920,1755602951308,23.12,-3.18,-30.86,797,922,774,351,806,34.48275862068966,-0.393,-0.055,0.927
246949,1755602951337,23.12,-3.19,-30.84,794,909,777,434,816,34.48275862068966,-0.391,-0.053,0.926
246979,1755602951367,23.14,-3.23,-30.83,790,912,765,406,806,33.333333333333336,-0.389,-0.052,0.926
247009,1755602951397,23.12,-3.23,-30.85,799,915,776,343,804,33.333333333333336,-0.388,-0.05,0.928
247038,1755602951426,23.11,-3.25,-30.86,794,918,775,331,809,34.48275862068966,-0.387,-0.05,0.927
247068,1755602951455,23.13,-3.29,-30.87,801,915,773,394,819,33.333333333333336,-0.388,-0.052,0.927
247097,1755602951485,23.12,-3.31,-30.87,795,910,778,432,812,34.48275862068966,-0.389,-0.053,0.928
247127,1755602951514,23.13,-3.3,-30.88,793,917,772,352,812,33.333333333333336,-0.389,-0.052,0.929
247156,1755602951544,23.13,-3.28,-30.89,794,908,768,332,809,34.48275862068966,-0.39,-0.054,0.929
247186,1755602951574,23.12,-3.26,-30.88,796,917,778,372,810,33.333333333333336,-0.389,-0.053,0.928
247216,1755602951604,23.13,-3.26,-30.88,796,912,778,421,812,33.333333333333336,-0.389,-0.051,0.928
247236,1755602951623,23.11,-3.26,-30.89,791,908,775,338,808,50.0,-0.388,-0.051,0.928
247265,1755602951653,23.11,-3.23,-30.91,799,912,771,400,806,34.48275862068966,-0.388,-0.051,0.929
247295,1755602951683,23.1,-3.22,-30.92,798,919,773,390,810,33.333333333333336,-0.388,-0.053,0.928
247324,1755602951713,23.12,-3.23,-30.93,798,909,775,315,813,34.48275862068966,-0.388,-0.052,0.927
247354,1755602951742,23.11,-3.22,-30.93,792,913,775,346,812,33.333333333333336,-0.389,-0.051,0.929
247384,1755602951772,23.13,-3.22,-30.94,797,907,779,422,807,33.333333333333336,-0.388,-0.05,0.928
247414,1755602951802,23.11,-3.25,-30.95,796,910,775,400,810,33.333333333333336,-0.388,-0.052,0.927
247443,1755602951832,23.11,-3.28,-30.96,793,924,774,361,812,34.48275862068966,-0.389,-0.053,0.928
247473,1755602951861,23.13,-3.28,-30.96,796,912,774,328,811,33.333333333333336,-0.39,-0.052,0.929
247503,1755602951891,23.13,-3.25,-30.96,791,917,769,364,805,33.333333333333336,-0.389,-0.051,0.928
247532,1755602951920,23.11,-3.27,-30.96,794,914,772,396,815,34.48275862068966,-0.388,-0.052,0.927
247562,1755602951949,23.13,-3.3,-30.98,795,921,771,387,812,33.333333333333336,-0.388,-0.052,0.928
247591,1755602951979,23.14,-3.31,-30.99,799,916,769,327,812,34.48275862068966,-0.39,-0.053,0.929
247620,1755602952008,23.14,-3.3,-30.99,792,922,770,333,816,34.48275862068966,-0.391,-0.053,0.928
247650,1755602952038,23.15,-3.29,-30.99,794,916,769,422,809,33.333333333333336,-0.391,-0.053,0.926
247680,1755602952068,23.17,-3.31,-30.99,792,917,777,368,812,33.333333333333336,-0.391,-0.053,0.926
247709,1755602952097,23.17,-3.32,-30.99,791,911,776,323,815,34.48275862068966,-0.39,-0.053,0.927
247739,1755602952127,23.17,-3.3,-30.99,797,914,773,327,809,33.333333333333336,-0.389,-0.052,0.928
247798,1755602952186,23.17,-3.31,-31.04,796,917,770,439,815,33.333333333333336,-0.389,-0.052,0.926
247828,1755602952215,23.18,-3.3,-31.05,797,908,773,390,812,33.333333333333336,-0.39,-0.053,0.927
247857,1755602952245,23.19,-3.29,-31.06,794,923,770,338,808,34.48275862068966,-0.391,-0.054,0.928
247916,1755602952304,23.25,-3.29,-31.07,799,920,771,415,815,34.48275862068966,-0.39,-0.054,0.926
247946,1755602952334,23.28,-3.33,-31.09,796,914,776,408,815,33.333333333333336,-0.389,-0.053,0.926
247975,1755602952363,23.38,-3.37,-31.12,798,915,768,339,811,34.48275862068966,-0.389,-0.054,0.926
248005,1755602952393,23.54,-3.37,-31.18,799,910,776,352,812,33.333333333333336,-0.388,-0.052,0.923
248034,1755602952423,23.78,-3.53,-31.26,803,919,771,425,816,34.48275862068966,-0.39,-0.054,0.92
248064,1755602952452,24.28,-3.83,-31.29,792,908,773,441,816,33.333333333333336,-0.393,-0.055,0.922
248094,1755602952481,25.01,-4.3,-31.41,793,906,771,404,813,33.333333333333336,-0.397,-0.059,0.917
248123,1755602952511,25.8,-4.74,-31.41,797,911,771,345,817,34.48275862068966,-0.415,-0.063,0.911
