timestamp_ms,recv_timestamp_ms,pitch,roll,yaw,flex1,flex2,flex3,flex4,flex5,sampling_hz,accel_x,accel_y,accel_z
213144,1755602917893,22.95,-1.19,-26.34,807,932,775,413,810,33.333333333333336,-0.389,-0.014,0.923
213173,1755602917895,22.88,-1.27,-26.36,808,917,778,349,810,34.48275862068966,-0.391,-0.017,0.927
213203,1755602917897,22.86,-1.26,-26.35,808,916,766,336,819,33.333333333333336,-0.392,-0.021,0.932
213233,1755602917899,22.86,-1.21,-26.3,798,925,772,406,813,33.333333333333336,-0.39,-0.021,0.93
213262,1755602917901,22.83,-1.18,-26.27,805,924,772,438,814,34.48275862068966,-0.387,-0.021,0.928
213292,1755602917902,22.82,-1.19,-26.25,801,922,773,392,816,33.333333333333336,-0.385,-0.019,0.929
213321,1755602917905,22.8,-1.19,-26.24,810,923,775,335,814,34.48275862068966,-0.385,-0.018,0.933
213351,1755602917906,22.81,-1.17,-26.23,800,919,770,356,814,33.333333333333336,-0.384,-0.019,0.934
213381,1755602917909,22.86,-1.15,-26.22,807,909,776,417,810,33.333333333333336,-0.384,-0.021,0.932
213410,1755602917911,22.86,-1.17,-26.19,801,907,769,390,812,34.48275862068966,-0.385,-0.019,0.928
213440,1755602917912,22.85,-1.21,-26.17,811,914,777,315,817,33.333333333333336,-0.386,-0.016,0.926
213469,1755602917915,22.87,-1.26,-26.16,806,917,777,288,814,34.48275862068966,-0.387,-0.014,0.928
213528,1755602917919,22.85,-1.26,-26.07,808,928,774,375,811,34.48275862068966,-0.387,-0.021,0.931
213558,1755602917945,22.87,-1.3,-26.03,805,916,776,341,808,33.333333333333336,-0.385,-0.022,0.93
213588,1755602917975,22.85,-1.29,-26.02,804,918,774,312,809,33.333333333333336,-0.384,-0.021,0.931
213617,1755602918005,22.84,-1.27,-26.01,803,920,772,330,817,34.48275862068966,-0.384,-0.02,0.934
213647,1755602918035,22.83,-1.22,-25.99,806,923,776,407,806,33.333333333333336,-0.383,-0.019,0.933
213677,1755602918064,22.86,-1.15,-26.0,805,925,773,395,817,33.333333333333336,-0.382,-0.019,0.932
213706,1755602918094,22.83,-1.11,-26.0,805,917,780,314,808,34.48275862068966,-0.382,-0.019,0.931
213736,1755602918123,22.82,-1.08,-25.99,806,930,773,334,816,33.333333333333336,-0.384,-0.019,0.931
213765,1755602918153,22.81,-1.04,-25.95,803,919,780,395,805,34.48275862068966,-0.386,-0.016,0.93
213795,1755602918182,22.75,-1.02,-25.89,807,924,775,413,812,33.333333333333336,-0.386,-0.011,0.928
213824,1755602918212,22.72,-1.06,-25.83,806,925,767,364,811,34.48275862068966,-0.384,-0.008,0.927
213854,1755602918241,22.69,-1.12,-25.8,805,926,770,328,812,33.333333333333336,-0.384,-0.01,0.929
213883,1755602918271,22.68,-1.15,-25.76,808,911,773,363,817,34.48275862068966,-0.384,-0.014,0.931
213913,1755602918300,22.69,-1.14,-25.72,808,922,770,424,814,33.333333333333336,-0.386,-0.016,0.933
213942,1755602918330,22.71,-1.14,-25.68,805,930,773,382,811,34.48275862068966,-0.386,-0.015,0.932
213972,1755602918359,22.7,-1.12,-25.65,800,924,776,312,805,33.333333333333336,-0.385,-0.013,0.931
214002,1755602918389,22.73,-1.13,-25.62,805,914,770,327,812,33.333333333333336,-0.383,-0.013,0.931
214031,1755602918418,22.74,-1.1,-25.57,812,916,772,411,814,34.48275862068966,-0.381,-0.013,0.934
214061,1755602918448,22.76,-1.04,-25.53,805,920,773,410,810,33.333333333333336,-0.378,-0.013,0.936
214090,1755602918478,22.78,-1.0,-25.51,799,926,773,308,822,34.48275862068966,-0.377,-0.012,0.931
214120,1755602918507,22.74,-1.0,-25.53,806,926,775,302,816,33.333333333333336,-0.38,-0.009,0.929
214149,1755602918537,22.74,-0.99,-25.57,805,913,774,374,817,34.48275862068966,-0.385,-0.007,0.93
214179,1755602918566,22.71,-0.95,-25.57,805,924,770,411,811,33.333333333333336,-0.388,-0.008,0.929
214208,1755602918596,22.76,-0.99,-25.58,806,916,770,395,817,34.48275862068966,-0.384,-0.01,0.927
214238,1755602918625,22.75,-1.02,-25.6,803,925,763,320,806,33.333333333333336,-0.381,-0.01,0.927
214326,1755602918714,22.72,-0.98,-25.71,806,924,769,408,812,34.48275862068966,-0.383,-0.011,0.933
214356,1755602918743,22.73,-0.96,-25.73,801,921,772,337,814,33.333333333333336,-0.384,-0.009,0.928
214385,1755602918773,22.69,-1.0,-25.74,807,922,776,348,814,34.48275862068966,-0.386,-0.011,0.926
214415,1755602918803,22.68,-1.04,-25.73,803,914,770,411,810,33.333333333333336,-0.387,-0.013,0.929
214445,1755602918832,22.7,-1.03,-25.71,803,924,776,433,818,33.333333333333336,-0.387,-0.014,0.932
214474,1755602918861,22.72,-0.99,-25.68,802,929,774,382,818,34.48275862068966,-0.383,-0.012,0.931
214504,1755602918891,22.73,-1.01,-25.7,805,929,772,341,809,33.333333333333336,-0.38,-0.009,0.927
214533,1755602918921,22.7,-1.06,-25.74,809,927,776,388,822,34.48275862068966,-0.38,-0.007,0.928
214563,1755602918950,22.72,-1.11,-25.78,805,924,773,425,813,33.333333333333336,-0.382,-0.009,0.931
214622,1755602919009,22.73,-1.13,-25.77,800,926,771,317,808,33.333333333333336,-0.385,-0.016,0.929
214651,1755602919038,22.73,-1.12,-25.76,796,921,771,335,809,34.48275862068966,-0.386,-0.016,0.929
214681,1755602919068,22.71,-1.11,-25.75,803,928,775,425,809,33.333333333333336,-0.386,-0.016,0.93
214710,1755602919098,22.67,-1.07,-25.72,807,917,770,423,804,34.48275862068966,-0.385,-0.015,0.931
214740,1755602919127,22.63,-1.04,-25.7,799,921,776,341,814,33.333333333333336,-0.382,-0.017,0.933
214769,1755602919156,22.64,-0.99,-25.7,800,921,776,331,810,34.48275862068966,-0.379,-0.018,0.933
214799,1755602919186,22.64,-0.95,-25.7,800,925,771,400,815,33.333333333333336,-0.38,-0.016,0.931
214828,1755602919216,22.63,-0.92,-25.69,806,933,766,406,817,34.48275862068966,-0.381,-0.016,0.931
214858,1755602919245,22.64,-0.89,-25.66,805,918,769,364,812,33.333333333333336,-0.382,-0.015,0.931
214888,1755602919275,22.65,-0.87,-25.64,803,915,777,327,815,33.333333333333336,-0.383,-0.011,0.931
214917,1755602919305,22.65,-0.86,-25.62,806,910,775,354,816,34.48275862068966,-0.382,-0.008,0.928
214977,1755602919364,22.69,-0.92,-25.59,808,916,772,405,814,33.333333333333336,-0.38,-0.01,0.93
215006,1755602919393,22.71,-0.94,-25.58,804,914,774,296,808,34.48275862068966,-0.381,-0.01,0.931
215036,1755602919424,22.73,-0.93,-25.58,803,920,776,307,816,33.333333333333336,-0.382,-0.009,0.931
215056,1755602919443,22.72,-0.91,-25.58,804,916,774,336,810,50.0,-0.384,-0.01,0.93
215085,1755602919473,22.73,-0.92,-25.58,804,916,769,350,816,34.48275862068966,-0.384,-0.011,0.928
215115,1755602919502,22.73,-0.93,-25.57,804,928,773,417,808,33.333333333333336,-0.384,-0.01,0.928
215144,1755602919532,22.72,-0.92,-25.57,803,912,772,428,813,34.48275862068966,-0.383,-0.009,0.93
215174,1755602919561,22.73,-0.92,-25.57,804,916,776,357,811,33.333333333333336,-0.381,-0.009,0.931
215203,1755602919591,22.72,-0.94,-25.6,807,918,776,330,818,34.48275862068966,-0.379,-0.009,0.931
215233,1755602919620,22.69,-0.94,-25.64,808,926,774,395,815,33.333333333333336,-0.381,-0.01,0.932
215262,1755602919650,22.74,-0.92,-25.64,806,925,767,422,813,34.48275862068966,-0.382,-0.013,0.935
215292,1755602919679,22.81,-0.87,-25.65,803,931,779,379,808,33.333333333333336,-0.379,-0.01,0.932
215322,1755602919709,22.79,-0.87,-25.69,809,920,771,312,813,33.333333333333336,-0.378,-0.006,0.928
215351,1755602919738,22.81,-0.9,-25.74,800,924,773,331,810,34.48275862068966,-0.384,-0.008,0.931
215381,1755602919768,22.85,-0.85,-25.75,804,928,764,420,813,33.333333333333336,-0.387,-0.012,0.934
215410,1755602919797,22.88,-0.8,-25.75,805,929,777,395,809,34.48275862068966,-0.388,-0.014,0.93
215469,1755602919856,22.91,-0.85,-25.72,801,925,774,339,811,33.333333333333336,-0.386,-0.011,0.931
215499,1755602919886,22.9,-0.83,-25.71,805,921,768,411,818,33.333333333333336,-0.383,-0.011,0.932
215529,1755602919916,22.9,-0.83,-25.75,800,924,775,427,812,33.333333333333336,-0.382,-0.007,0.93
215558,1755602919946,22.92,-0.81,-25.79,804,919,772,378,814,34.48275862068966,-0.384,-0.008,0.93
215588,1755602919976,22.93,-0.79,-25.85,805,917,770,343,812,33.333333333333336,-0.382,-0.009,0.93
215608,1755602919995,22.91,-0.77,-25.91,800,922,767,408,816,50.0,-0.381,-0.008,0.929
215637,1755602920025,22.85,-0.74,-26.0,806,935,774,334,814,34.48275862068966,-0.385,-0.01,0.93
215667,1755602920055,22.88,-0.69,-26.05,799,927,773,347,811,33.333333333333336,-0.388,-0.014,0.933
215697,1755602920084,22.88,-0.61,-26.08,804,924,774,434,808,33.333333333333336,-0.386,-0.011,0.93
215726,1755602920114,22.86,-0.61,-26.13,809,908,775,403,808,34.48275862068966,-0.385,-0.008,0.925
215756,1755602920143,22.86,-0.64,-26.15,804,927,765,337,810,33.333333333333336,-0.385,-0.009,0.926
215786,1755602920173,22.88,-0.68,-26.19,802,926,773,334,810,33.333333333333336,-0.385,-0.011,0.927
215815,1755602920202,22.88,-0.69,-26.2,804,918,776,412,813,34.48275862068966,-0.387,-0.002,0.927
215844,1755602920232,22.89,-0.73,-26.2,806,912,773,411,814,34.48275862068966,-0.388,-0.005,0.928
215874,1755602920261,22.93,-0.75,-26.19,810,917,774,358,808,33.333333333333336,-0.386,-0.007,0.929
215903,1755602920290,22.94,-0.77,-26.19,803,921,775,337,817,34.48275862068966,-0.387,-0.008,0.93
215933,1755602920320,22.93,-0.8,-26.18,808,925,774,395,812,33.333333333333336,-0.386,-0.008,0.931
215962,1755602920350,22.92,-0.8,-26.18,796,910,776,410,819,34.48275862068966,-0.386,-0.012,0.932
215992,1755602920379,22.88,-0.78,-26.2,801,915,773,397,810,33.333333333333336,-0.383,-0.014,0.931
216021,1755602920409,22.86,-0.83,-26.25,805,925,777,330,811,34.48275862068966,-0.382,-0.014,0.929
216051,1755602920438,22.89,-0.85,-26.31,800,922,776,337,810,33.333333333333336,-0.384,-0.011,0.93
216081,1755602920468,22.93,-0.81,-26.37,806,918,774,423,816,33.333333333333336,-0.386,-0.009,0.932
216110,1755602920498,23.02,-0.77,-26.43,808,918,775,410,815,34.48275862068966,-0.385,-0.008,0.932
216140,1755602920527,23.07,-0.73,-26.47,805,919,776,306,815,33.333333333333336,-0.387,-0.01,0.93
216169,1755602920557,23.12,-0.74,-26.52,801,925,769,323,811,34.48275862068966,-0.387,-0.011,0.926
216199,1755602920586,23.19,-0.8,-26.54,809,917,775,397,815,33.333333333333336,-0.39,-0.013,0.924
216228,1755602920615,23.27,-0.83,-26.49,801,928,772,407,805,34.48275862068966,-0.395,-0.017,0.93
216257,1755602920645,23.29,-0.77,-26.4,806,924,777,365,813,34.48275862068966,-0.396,-0.018,0.933
216287,1755602920674,23.33,-0.72,-26.35,804,913,775,321,810,33.333333333333336,-0.392,-0.015,0.927
216316,1755602920704,23.35,-0.78,-26.34,801,929,768,342,816,34.48275862068966,-0.389,-0.013,0.924
216346,1755602920733,23.31,-0.84,-26.33,804,925,770,411,808,33.333333333333336,-0.39,-0.013,0.928
216405,1755602920792,23.79,-0.91,-26.31,802,919,773,314,815,33.333333333333336,-0.392,-0.014,0.93
216434,1755602920822,23.78,-0.9,-26.33,806,923,773,345,812,34.48275862068966,-0.39,-0.013,0.927
216464,1755602920851,23.75,-0.94,-26.38,805,925,772,420,814,33.333333333333336,-0.391,-0.013,0.924
216493,1755602920881,23.72,-1.01,-26.42,795,915,770,414,810,34.48275862068966,-0.392,-0.014,0.927
216523,1755602920911,23.72,-1.04,-26.46,799,926,774,346,813,33.333333333333336,-0.392,-0.016,0.929
216552,1755602920941,23.73,-1.01,-26.48,800,919,768,336,804,34.48275862068966,-0.393,-0.017,0.929
216573,1755602920960,23.72,-1.0,-26.5,802,914,774,375,803,47.61904761904762,-0.394,-0.019,0.928
216602,1755602920990,23.74,-0.99,-26.51,805,923,773,345,815,34.48275862068966,-0.396,-0.022,0.928
216632,1755602921019,23.79,-0.98,-26.49,804,913,774,414,815,33.333333333333336,-0.396,-0.02,0.926
216661,1755602921049,23.79,-0.99,-26.49,807,926,772,425,814,34.48275862068966,-0.396,-0.018,0.925
216691,1755602921078,23.78,-0.99,-26.48,804,920,778,376,803,33.333333333333336,-0.395,-0.016,0.926
216720,1755602921108,23.78,-1.01,-26.49,805,925,775,336,807,34.48275862068966,-0.394,-0.016,0.926
216750,1755602921138,23.77,-1.03,-26.5,803,921,774,375,814,33.333333333333336,-0.394,-0.017,0.925
216780,1755602921167,23.75,-1.05,-26.51,804,918,777,417,812,33.333333333333336,-0.395,-0.019,0.926
216809,1755602921196,23.73,-1.03,-26.5,810,920,772,401,809,34.48275862068966,-0.398,-0.019,0.926
216839,1755602921226,23.73,-1.03,-26.48,805,921,768,332,809,33.333333333333336,-0.399,-0.02,0.925
216868,1755602921255,23.73,-1.02,-26.45,800,922,771,345,809,34.48275862068966,-0.398,-0.02,0.926
216897,1755602921285,23.74,-1.02,-26.44,800,916,773,433,810,34.48275862068966,-0.396,-0.018,0.925
216927,1755602921314,23.75,-1.03,-26.46,806,927,777,402,810,33.333333333333336,-0.394,-0.016,0.925
216956,1755602921344,23.73,-1.04,-26.48,802,924,776,359,818,34.48275862068966,-0.395,-0.015,0.925
216986,1755602921373,23.7,-1.05,-26.52,808,930,766,334,812,33.333333333333336,-0.394,-0.015,0.925
217045,1755602921432,23.69,-1.09,-26.57,801,909,777,414,816,33.333333333333336,-0.396,-0.02,0.927
217075,1755602921462,23.67,-1.08,-26.57,802,908,765,386,811,33.333333333333336,-0.396,-0.022,0.928
217104,1755602921491,23.65,-1.05,-26.57,799,925,773,281,809,34.48275862068966,-0.395,-0.02,0.927
217133,1755602921521,23.65,-1.06,-26.59,802,910,775,328,810,34.48275862068966,-0.395,-0.019,0.927
217163,1755602921550,23.63,-1.05,-26.61,805,927,772,416,812,33.333333333333336,-0.395,-0.02,0.926
217192,1755602921580,23.63,-1.06,-26.63,803,922,772,395,810,34.48275862068966,-0.395,-0.019,0.925
217222,1755602921609,23.61,-1.09,-26.64,801,918,773,320,814,33.333333333333336,-0.395,-0.018,0.925
217281,1755602921668,23.6,-1.1,-26.65,805,919,775,413,820,33.333333333333336,-0.394,-0.019,0.927
217310,1755602921697,23.59,-1.12,-26.65,798,921,772,403,813,34.48275862068966,-0.395,-0.02,0.926
217340,1755602921727,23.57,-1.14,-26.64,802,912,775,329,814,33.333333333333336,-0.396,-0.021,0.927
217369,1755602921756,23.54,-1.12,-26.62,803,914,770,339,810,34.48275862068966,-0.395,-0.02,0.928
217399,1755602921786,23.54,-1.14,-26.63,799,924,772,393,812,33.333333333333336,-0.392,-0.016,0.927
217428,1755602921816,23.54,-1.18,-26.66,803,921,777,371,814,34.48275862068966,-0.391,-0.013,0.925
217458,1755602921845,23.5,-1.23,-26.71,805,917,778,353,811,33.333333333333336,-0.393,-0.017,0.927
217487,1755602921875,23.5,-1.24,-26.72,805,919,773,325,816,34.48275862068966,-0.395,-0.022,0.929
217517,1755602921905,23.52,-1.25,-26.71,801,925,774,354,813,33.333333333333336,-0.395,-0.024,0.928
217547,1755602921934,23.53,-1.26,-26.71,804,923,769,426,807,33.333333333333336,-0.395,-0.024,0.927
217576,1755602921964,23.49,-1.27,-26.7,804,910,776,420,814,34.48275862068966,-0.395,-0.023,0.928
217606,1755602921993,23.47,-1.26,-26.69,802,921,779,340,818,33.333333333333336,-0.395,-0.022,0.929
217635,1755602922023,23.47,-1.26,-26.68,796,921,770,355,812,34.48275862068966,-0.393,-0.02,0.928
217665,1755602922052,23.44,-1.3,-26.68,802,923,773,404,813,33.333333333333336,-0.392,-0.018,0.924
217694,1755602922082,23.42,-1.38,-26.69,801,914,771,412,813,34.48275862068966,-0.393,-0.02,0.927
217724,1755602922112,23.4,-1.48,-26.68,800,929,780,360,809,33.333333333333336,-0.392,-0.023,0.927
217773,1755602922161,23.41,-1.57,-26.65,803,908,776,343,812,34.48275862068966,-0.392,-0.024,0.927
217803,1755602922190,23.41,-1.6,-26.63,799,925,773,333,810,33.333333333333336,-0.393,-0.025,0.928
217862,1755602922249,23.43,-1.68,-26.6,803,917,775,410,805,33.333333333333336,-0.391,-0.026,0.927
217891,1755602922279,23.42,-1.7,-26.59,799,921,769,339,807,34.48275862068966,-0.392,-0.026,0.928
217921,1755602922308,23.43,-1.72,-26.59,799,923,775,298,818,33.333333333333336,-0.393,-0.028,0.927
217950,1755602922338,23.44,-1.74,-26.56,805,924,776,345,812,34.48275862068966,-0.393,-0.029,0.927
217980,1755602922367,23.44,-1.76,-26.55,800,920,770,422,809,33.333333333333336,-0.393,-0.027,0.926
218009,1755602922397,23.42,-1.77,-26.55,798,921,769,388,809,34.48275862068966,-0.393,-0.028,0.927
218039,1755602922426,23.44,-1.75,-26.56,802,919,763,324,818,33.333333333333336,-0.392,-0.03,0.929
218068,1755602922456,23.43,-1.7,-26.57,797,923,772,341,809,34.48275862068966,-0.391,-0.03,0.926
218098,1755602922485,23.43,-1.73,-26.6,799,916,778,410,808,33.333333333333336,-0.391,-0.027,0.924
218127,1755602922515,23.41,-1.76,-26.62,802,917,773,418,822,34.48275862068966,-0.392,-0.026,0.926
218186,1755602922574,23.43,-1.74,-26.65,805,916,778,321,813,34.48275862068966,-0.393,-0.031,0.927
218216,1755602922604,23.43,-1.74,-26.63,801,923,772,346,812,33.333333333333336,-0.393,-0.033,0.927
218246,1755602922634,23.44,-1.73,-26.61,802,919,775,410,822,33.333333333333336,-0.393,-0.031,0.926
218266,1755602922653,23.45,-1.73,-26.59,803,922,765,347,819,50.0,-0.392,-0.027,0.925
218296,1755602922683,23.44,-1.73,-26.59,804,918,770,409,815,33.333333333333336,-0.391,-0.023,0.924
218325,1755602922712,23.45,-1.78,-26.6,803,914,771,381,813,34.48275862068966,-0.391,-0.025,0.924
218354,1755602922742,23.46,-1.82,-26.61,804,922,773,311,821,34.48275862068966,-0.392,-0.028,0.926
218413,1755602922801,23.46,-1.82,-26.6,796,921,776,409,817,34.48275862068966,-0.393,-0.031,0.926
218443,1755602922830,23.45,-1.81,-26.6,802,916,780,411,812,33.333333333333336,-0.394,-0.031,0.926
218472,1755602922860,23.46,-1.79,-26.6,799,926,776,340,811,34.48275862068966,-0.396,-0.031,0.926
218502,1755602922889,23.43,-1.75,-26.6,802,917,768,332,810,33.333333333333336,-0.396,-0.031,0.926
218531,1755602922919,23.44,-1.71,-26.6,798,920,772,416,812,34.48275862068966,-0.398,-0.032,0.927
218561,1755602922948,23.46,-1.67,-26.58,801,915,774,414,812,33.333333333333336,-0.396,-0.031,0.926
218620,1755602923007,23.41,-1.67,-26.6,800,917,772,312,815,34.48275862068966,-0.39,-0.026,0.927
218650,1755602923037,23.41,-1.66,-26.64,803,914,767,365,810,33.333333333333336,-0.39,-0.027,0.929
218708,1755602923096,23.41,-1.63,-26.71,800,919,776,409,815,34.48275862068966,-0.393,-0.027,0.925
218738,1755602923125,23.42,-1.66,-26.75,805,922,773,340,814,33.333333333333336,-0.395,-0.028,0.925
218767,1755602923155,23.43,-1.67,-26.76,803,913,779,358,811,34.48275862068966,-0.395,-0.028,0.927
218797,1755602923184,23.45,-1.64,-26.76,800,915,779,430,811,33.333333333333336,-0.394,-0.027,0.928
218886,1755602923273,23.41,-1.69,-26.82,804,916,775,335,812,33.333333333333336,-0.394,-0.027,0.926
218915,1755602923303,23.42,-1.7,-26.82,805,914,768,404,816,34.48275862068966,-0.395,-0.028,0.927
218945,1755602923332,23.42,-1.69,-26.82,796,931,775,428,812,33.333333333333336,-0.395,-0.029,0.927
218974,1755602923362,23.42,-1.71,-26.82,801,915,772,374,813,34.48275862068966,-0.394,-0.028,0.926
219004,1755602923391,23.42,-1.74,-26.83,801,919,773,326,810,33.333333333333336,-0.394,-0.028,0.926
219033,1755602923421,23.42,-1.75,-26.84,806,925,769,365,808,34.48275862068966,-0.393,-0.028,0.927
219063,1755602923450,23.42,-1.76,-26.86,801,913,770,442,811,33.333333333333336,-0.393,-0.029,0.928
219093,1755602923480,23.43,-1.75,-26.87,802,912,771,399,814,33.333333333333336,-0.393,-0.029,0.928
219122,1755602923509,23.45,-1.73,-26.86,802,924,772,328,815,34.48275862068966,-0.394,-0.029,0.929
219152,1755602923539,23.45,-1.7,-26.85,795,925,772,349,807,33.333333333333336,-0.394,-0.028,0.928
219181,1755602923569,23.45,-1.7,-26.86,806,924,777,409,817,34.48275862068966,-0.394,-0.028,0.927
219211,1755602923599,23.41,-1.72,-26.86,803,909,768,411,810,33.333333333333336,-0.394,-0.029,0.927
219241,1755602923628,23.39,-1.7,-26.85,801,919,769,364,813,33.333333333333336,-0.394,-0.028,0.928
219270,1755602923658,23.38,-1.69,-26.86,796,917,771,320,809,34.48275862068966,-0.395,-0.028,0.928
219300,1755602923687,23.36,-1.7,-26.85,799,918,770,356,811,33.333333333333336,-0.394,-0.028,0.927
219329,1755602923717,23.36,-1.71,-26.85,803,911,775,416,811,34.48275862068966,-0.393,-0.028,0.927
219359,1755602923746,23.36,-1.71,-26.85,806,924,773,386,808,33.333333333333336,-0.392,-0.028,0.928
219388,1755602923776,23.34,-1.71,-26.86,797,924,772,326,815,34.48275862068966,-0.392,-0.028,0.928
219418,1755602923805,23.34,-1.72,-26.88,805,920,769,346,812,33.333333333333336,-0.392,-0.028,0.927
219448,1755602923835,23.32,-1.72,-26.89,800,928,773,421,816,33.333333333333336,-0.393,-0.028,0.927
219477,1755602923864,23.32,-1.73,-26.9,797,913,775,407,810,34.48275862068966,-0.393,-0.027,0.927
219506,1755602923894,23.33,-1.74,-26.91,803,918,771,348,816,34.48275862068966,-0.393,-0.027,0.927
219536,1755602923923,23.32,-1.76,-26.92,804,918,775,340,812,33.333333333333336,-0.393,-0.028,0.927
219565,1755602923953,23.3,-1.76,-26.92,801,920,772,384,806,34.48275862068966,-0.392,-0.029,0.927
219595,1755602923982,23.31,-1.76,-26.92,793,921,763,418,811,33.333333333333336,-0.393,-0.029,0.927
219624,1755602924012,23.3,-1.78,-26.91,804,913,771,380,809,34.48275862068966,-0.394,-0.029,0.927
219654,1755602924042,23.26,-1.83,-26.91,801,923,770,326,813,33.333333333333336,-0.393,-0.028,0.925
219684,1755602924071,23.26,-1.87,-26.9,804,918,776,339,807,33.333333333333336,-0.391,-0.028,0.926
219713,1755602924101,23.27,-1.86,-26.89,801,919,773,415,815,34.48275862068966,-0.391,-0.028,0.93
219743,1755602924131,23.28,-1.83,-26.89,806,921,767,403,819,33.333333333333336,-0.391,-0.029,0.93
219773,1755602924160,23.27,-1.79,-26.87,798,929,778,350,803,33.333333333333336,-0.391,-0.03,0.928
219802,1755602924189,23.27,-1.8,-26.84,800,917,766,338,822,34.48275862068966,-0.392,-0.031,0.927
219832,1755602924219,23.26,-1.81,-26.82,803,910,773,397,814,33.333333333333336,-0.391,-0.029,0.927
219861,1755602924249,23.26,-1.8,-26.8,805,915,765,419,805,34.48275862068966,-0.393,-0.03,0.929
219881,1755602924268,23.24,-1.78,-26.77,801,926,768,369,809,50.0,-0.393,-0.031,0.93
219911,1755602924298,23.24,-1.74,-26.74,794,919,770,401,812,33.333333333333336,-0.392,-0.03,0.928
219940,1755602924328,23.25,-1.76,-26.72,802,924,771,347,806,34.48275862068966,-0.391,-0.029,0.928
219970,1755602924357,23.25,-1.77,-26.7,801,921,774,331,815,33.333333333333336,-0.392,-0.029,0.928
220029,1755602924417,23.25,-1.74,-26.65,797,922,774,413,807,33.333333333333336,-0.39,-0.026,0.929
220059,1755602924446,23.26,-1.77,-26.66,801,922,768,407,811,33.333333333333336,-0.388,-0.026,0.928
220088,1755602924476,23.24,-1.77,-26.67,797,920,776,328,811,34.48275862068966,-0.388,-0.026,0.929
220118,1755602924505,23.25,-1.76,-26.7,803,919,771,343,806,33.333333333333336,-0.388,-0.025,0.929
220147,1755602924535,23.26,-1.74,-26.72,803,920,779,408,815,34.48275862068966,-0.388,-0.025,0.929
220177,1755602924564,23.26,-1.72,-26.74,800,912,777,403,811,33.333333333333336,-0.388,-0.027,0.929
220206,1755602924594,23.26,-1.7,-26.76,797,919,775,331,809,34.48275862068966,-0.389,-0.026,0.929
220236,1755602924623,23.26,-1.69,-26.79,804,913,767,333,809,33.333333333333336,-0.39,-0.024,0.927
220265,1755602924653,23.25,-1.69,-26.83,798,914,772,354,814,34.48275862068966,-0.389,-0.024,0.926
220295,1755602924682,23.25,-1.71,-26.86,801,919,775,410,815,33.333333333333336,-0.389,-0.025,0.927
220325,1755602924712,23.23,-1.72,-26.9,802,915,770,377,816,33.333333333333336,-0.39,-0.026,0.926
220384,1755602924771,23.22,-1.74,-26.93,803,916,773,348,813,33.333333333333336,-0.392,-0.027,0.927
220413,1755602924800,23.25,-1.75,-26.94,799,911,773,417,811,34.48275862068966,-0.391,-0.027,0.927
220443,1755602924830,23.23,-1.75,-26.96,805,916,770,413,808,33.333333333333336,-0.391,-0.027,0.927
220472,1755602924860,23.21,-1.77,-26.97,798,913,777,339,814,34.48275862068966,-0.391,-0.027,0.927
220492,1755602924880,23.2,-1.78,-26.98,802,916,775,420,809,50.0,-0.391,-0.029,0.927
220522,1755602924909,23.19,-1.76,-26.98,802,924,774,338,808,33.333333333333336,-0.393,-0.031,0.928
220551,1755602924939,23.2,-1.75,-26.96,798,920,771,351,806,34.48275862068966,-0.393,-0.031,0.929
220610,1755602924998,23.21,-1.73,-26.96,803,922,771,405,815,34.48275862068966,-0.389,-0.027,0.927
220640,1755602925028,23.19,-1.74,-26.96,800,913,776,352,810,33.333333333333336,-0.39,-0.028,0.927
220670,1755602925057,23.21,-1.72,-26.96,804,920,767,327,812,33.333333333333336,-0.39,-0.028,0.928
220699,1755602925086,23.21,-1.71,-26.95,803,914,771,366,809,34.48275862068966,-0.39,-0.027,0.927
220729,1755602925116,23.19,-1.73,-26.95,804,917,775,424,812,33.333333333333336,-0.389,-0.026,0.926
220758,1755602925145,23.19,-1.74,-26.95,802,922,773,400,808,34.48275862068966,-0.39,-0.028,0.927
220817,1755602925204,23.18,-1.7,-26.91,796,909,771,351,814,33.333333333333336,-0.389,-0.028,0.928
220846,1755602925234,23.18,-1.7,-26.91,804,913,774,416,810,34.48275862068966,-0.39,-0.027,0.926
220876,1755602925263,23.15,-1.71,-26.89,807,925,771,413,813,33.333333333333336,-0.388,-0.027,0.928
220905,1755602925293,23.14,-1.71,-26.89,804,911,774,341,818,34.48275862068966,-0.387,-0.027,0.929
220935,1755602925323,23.14,-1.69,-26.92,802,914,771,348,815,33.333333333333336,-0.388,-0.026,0.929
220965,1755602925352,23.12,-1.67,-26.96,800,918,773,401,821,33.333333333333336,-0.389,-0.025,0.929
220994,1755602925382,23.11,-1.64,-26.98,801,914,776,413,810,34.48275862068966,-0.389,-0.025,0.929
221024,1755602925411,23.11,-1.62,-27.0,799,912,771,361,811,33.333333333333336,-0.389,-0.025,0.928
221053,1755602925441,23.12,-1.64,-27.03,802,911,778,341,813,34.48275862068966,-0.388,-0.026,0.929
221083,1755602925470,23.13,-1.66,-27.05,797,914,776,339,812,33.333333333333336,-0.386,-0.026,0.929
221112,1755602925500,23.13,-1.68,-27.08,802,912,777,416,812,34.48275862068966,-0.387,-0.026,0.929
221142,1755602925529,23.14,-1.7,-27.1,807,921,772,399,814,33.333333333333336,-0.389,-0.027,0.929
221171,1755602925559,23.15,-1.72,-27.11,802,910,774,322,818,34.48275862068966,-0.39,-0.025,0.928
221201,1755602925588,23.17,-1.76,-27.13,802,917,765,354,813,33.333333333333336,-0.389,-0.025,0.927
221231,1755602925618,23.18,-1.79,-27.15,805,926,776,386,804,33.333333333333336,-0.39,-0.027,0.929
221260,1755602925647,23.18,-1.8,-27.16,802,913,781,354,810,34.48275862068966,-0.389,-0.029,0.931
221289,1755602925677,23.21,-1.79,-27.16,799,921,772,317,813,34.48275862068966,-0.389,-0.029,0.93
221319,1755602925706,23.2,-1.78,-27.16,804,920,773,327,810,33.333333333333336,-0.389,-0.028,0.93
221348,1755602925736,23.21,-1.79,-27.17,806,915,768,391,809,34.48275862068966,-0.388,-0.028,0.928
221378,1755602925766,23.21,-1.81,-27.18,802,911,772,418,813,33.333333333333336,-0.39,-0.029,0.928
221408,1755602925795,23.21,-1.8,-27.18,805,923,772,393,812,33.333333333333336,-0.391,-0.029,0.929
221437,1755602925824,23.22,-1.82,-27.18,802,911,768,336,805,34.48275862068966,-0.391,-0.029,0.927
221466,1755602925854,23.22,-1.83,-27.18,799,916,774,358,816,34.48275862068966,-0.391,-0.029,0.926
221496,1755602925883,23.22,-1.86,-27.18,797,925,777,423,813,33.333333333333336,-0.39,-0.028,0.926
221525,1755602925913,23.21,-1.88,-27.18,803,909,776,406,812,34.48275862068966,-0.389,-0.029,0.928
221555,1755602925943,23.19,-1.89,-27.2,800,918,772,347,809,33.333333333333336,-0.388,-0.029,0.929
221585,1755602925972,23.18,-1.9,-27.22,796,917,774,357,808,33.333333333333336,-0.388,-0.03,0.929
221614,1755602926001,23.16,-1.89,-27.24,802,920,771,418,812,34.48275862068966,-0.39,-0.031,0.929
221643,1755602926031,23.16,-1.87,-27.22,798,926,770,421,811,34.48275862068966,-0.392,-0.031,0.929
221673,1755602926060,23.15,-1.87,-27.21,801,935,768,346,816,33.333333333333336,-0.39,-0.03,0.927
221702,1755602926090,23.16,-1.89,-27.22,797,922,773,329,813,34.48275862068966,-0.389,-0.03,0.928
221761,1755602926149,23.13,-1.88,-27.2,797,916,766,404,812,34.48275862068966,-0.39,-0.031,0.929
221791,1755602926178,23.13,-1.88,-27.19,801,916,777,379,810,33.333333333333336,-0.388,-0.03,0.928
221820,1755602926208,23.08,-1.92,-27.19,802,918,766,322,810,34.48275862068966,-0.386,-0.029,0.927
221850,1755602926237,23.08,-1.95,-27.21,803,919,774,370,807,33.333333333333336,-0.386,-0.029,0.928
