timestamp_ms,recv_timestamp_ms,pitch,roll,yaw,flex1,flex2,flex3,flex4,flex5,sampling_hz,accel_x,accel_y,accel_z
221880,1755602926776,23.07,-1.97,-27.22,799,916,777,427,809,33.333333333333336,-0.388,-0.031,0.929
221909,1755602926777,23.06,-1.98,-27.23,800,915,774,397,813,34.48275862068966,-0.389,-0.032,0.929
221939,1755602926780,23.04,-2.01,-27.23,801,919,770,311,819,33.333333333333336,-0.388,-0.032,0.928
221968,1755602926782,23.02,-2.08,-27.25,804,917,775,348,815,34.48275862068966,-0.386,-0.032,0.927
221998,1755602926784,23.0,-2.09,-27.26,803,923,774,411,813,33.333333333333336,-0.388,-0.032,0.93
222057,1755602926788,22.99,-2.08,-27.27,803,920,771,342,810,33.333333333333336,-0.387,-0.034,0.93
222086,1755602926790,22.99,-2.09,-27.27,806,913,772,322,811,34.48275862068966,-0.387,-0.034,0.928
222107,1755602926792,22.99,-2.1,-27.27,804,916,765,382,807,47.61904761904762,-0.387,-0.033,0.929
222136,1755602926794,22.98,-2.11,-27.27,804,923,770,355,812,34.48275862068966,-0.387,-0.033,0.93
222166,1755602926796,22.99,-2.13,-27.27,799,919,774,407,813,33.333333333333336,-0.386,-0.032,0.929
222196,1755602926798,22.99,-2.16,-27.28,804,917,771,420,809,33.333333333333336,-0.385,-0.033,0.93
222226,1755602926799,23.0,-2.16,-27.29,801,913,769,399,809,33.333333333333336,-0.386,-0.034,0.929
222255,1755602926802,22.99,-2.17,-27.29,801,923,767,334,817,34.48275862068966,-0.387,-0.034,0.929
222285,1755602926804,22.99,-2.17,-27.3,805,912,770,347,812,33.333333333333336,-0.387,-0.035,0.93
222314,1755602926806,22.99,-2.16,-27.32,799,928,776,411,822,34.48275862068966,-0.386,-0.036,0.93
222374,1755602926810,22.98,-2.17,-27.35,797,921,772,350,812,33.333333333333336,-0.387,-0.036,0.93
222404,1755602926811,22.99,-2.17,-27.37,800,910,774,333,813,33.333333333333336,-0.386,-0.034,0.93
222433,1755602926821,23.0,-2.18,-27.38,798,912,769,378,808,34.48275862068966,-0.387,-0.034,0.93
222463,1755602926850,23.0,-2.19,-27.39,801,922,774,438,810,33.333333333333336,-0.389,-0.037,0.93
222492,1755602926880,23.0,-2.19,-27.39,792,921,776,409,810,34.48275862068966,-0.388,-0.037,0.93
222522,1755602926909,23.01,-2.17,-27.4,799,921,771,337,811,33.333333333333336,-0.388,-0.035,0.931
222551,1755602926939,23.01,-2.16,-27.41,805,916,773,348,808,34.48275862068966,-0.387,-0.035,0.929
222581,1755602926968,22.99,-2.18,-27.42,802,919,773,429,814,33.333333333333336,-0.388,-0.037,0.93
222610,1755602926998,22.97,-2.2,-27.41,797,920,772,417,809,34.48275862068966,-0.389,-0.037,0.931
222640,1755602927027,22.94,-2.18,-27.38,801,908,772,347,806,33.333333333333336,-0.385,-0.037,0.931
222670,1755602927057,22.93,-2.19,-27.39,795,914,773,326,814,33.333333333333336,-0.384,-0.036,0.93
222699,1755602927086,22.91,-2.22,-27.4,804,930,775,393,810,34.48275862068966,-0.385,-0.036,0.93
222728,1755602927116,22.94,-2.25,-27.4,796,924,773,422,812,34.48275862068966,-0.388,-0.038,0.93
222758,1755602927145,22.96,-2.26,-27.38,802,903,776,342,815,33.333333333333336,-0.388,-0.037,0.931
222787,1755602927175,22.93,-2.25,-27.37,801,916,774,322,811,34.48275862068966,-0.384,-0.035,0.931
222817,1755602927205,22.93,-2.26,-27.39,799,918,766,359,813,33.333333333333336,-0.382,-0.036,0.931
222847,1755602927234,22.92,-2.27,-27.41,803,906,775,430,817,33.333333333333336,-0.384,-0.037,0.932
222876,1755602927264,22.91,-2.28,-27.41,803,913,768,403,815,34.48275862068966,-0.387,-0.037,0.931
222906,1755602927294,22.9,-2.3,-27.41,796,916,768,288,812,33.333333333333336,-0.387,-0.037,0.93
222936,1755602927323,22.9,-2.35,-27.41,797,910,777,317,813,33.333333333333336,-0.387,-0.037,0.93
222965,1755602927353,22.88,-2.37,-27.41,796,916,774,395,817,34.48275862068966,-0.386,-0.038,0.931
222995,1755602927382,22.87,-2.37,-27.41,799,914,772,408,813,33.333333333333336,-0.384,-0.038,0.926
223024,1755602927412,22.86,-2.36,-27.41,799,918,771,370,811,34.48275862068966,-0.384,-0.038,0.927
223054,1755602927441,22.85,-2.35,-27.42,802,921,775,329,811,33.333333333333336,-0.384,-0.038,0.927
223083,1755602927471,22.85,-2.37,-27.42,800,919,771,367,816,34.48275862068966,-0.385,-0.038,0.927
223113,1755602927501,22.84,-2.39,-27.41,801,917,768,408,811,33.333333333333336,-0.385,-0.039,0.929
223143,1755602927530,22.85,-2.38,-27.4,793,921,770,406,811,33.333333333333336,-0.384,-0.039,0.93
223172,1755602927560,22.83,-2.36,-27.39,802,922,773,330,813,34.48275862068966,-0.382,-0.038,0.93
223202,1755602927589,22.83,-2.37,-27.4,805,917,766,333,815,33.333333333333336,-0.382,-0.038,0.929
223231,1755602927619,22.83,-2.38,-27.41,802,914,773,414,805,34.48275862068966,-0.383,-0.038,0.93
223261,1755602927648,22.82,-2.36,-27.4,799,912,770,414,822,33.333333333333336,-0.385,-0.039,0.93
223290,1755602927678,22.85,-2.38,-27.4,803,925,775,309,804,34.48275862068966,-0.384,-0.038,0.929
223320,1755602927707,22.84,-2.4,-27.4,797,922,773,302,811,33.333333333333336,-0.383,-0.038,0.929
223349,1755602927737,22.85,-2.42,-27.41,803,921,779,388,808,34.48275862068966,-0.382,-0.038,0.93
223379,1755602927767,22.84,-2.41,-27.42,801,916,766,410,805,33.333333333333336,-0.383,-0.038,0.931
223409,1755602927796,22.86,-2.37,-27.42,800,920,772,387,811,33.333333333333336,-0.382,-0.038,0.93
223438,1755602927826,22.91,-2.37,-27.44,798,919,769,311,816,34.48275862068966,-0.383,-0.037,0.928
223468,1755602927855,22.88,-2.41,-27.46,801,915,777,352,805,33.333333333333336,-0.384,-0.039,0.927
223498,1755602927885,22.85,-2.44,-27.45,800,913,770,433,807,33.333333333333336,-0.385,-0.04,0.931
223527,1755602927914,22.86,-2.41,-27.44,802,916,774,418,817,34.48275862068966,-0.384,-0.039,0.933
223556,1755602927944,22.86,-2.37,-27.44,798,915,770,328,813,34.48275862068966,-0.382,-0.039,0.931
223586,1755602927973,22.86,-2.39,-27.46,804,912,773,321,819,33.333333333333336,-0.382,-0.038,0.929
223615,1755602928003,22.85,-2.41,-27.47,801,928,776,383,815,34.48275862068966,-0.383,-0.038,0.929
223645,1755602928032,22.85,-2.39,-27.48,797,908,778,416,809,33.333333333333336,-0.384,-0.038,0.931
223674,1755602928062,22.85,-2.39,-27.49,801,920,771,357,817,34.48275862068966,-0.384,-0.038,0.93
223704,1755602928091,22.85,-2.4,-27.5,803,924,768,324,810,33.333333333333336,-0.384,-0.039,0.929
223733,1755602928121,22.86,-2.4,-27.51,805,915,771,368,814,34.48275862068966,-0.384,-0.04,0.93
223763,1755602928150,22.86,-2.4,-27.52,801,922,771,415,811,33.333333333333336,-0.383,-0.039,0.931
223792,1755602928180,22.85,-2.41,-27.53,797,919,775,389,816,34.48275862068966,-0.382,-0.038,0.931
223822,1755602928210,22.85,-2.42,-27.56,799,917,768,311,810,33.333333333333336,-0.383,-0.038,0.93
223852,1755602928239,22.84,-2.44,-27.57,802,914,771,330,814,33.333333333333336,-0.383,-0.039,0.93
223881,1755602928269,22.85,-2.47,-27.58,797,923,764,412,813,34.48275862068966,-0.384,-0.039,0.93
223911,1755602928298,22.84,-2.46,-27.58,804,912,770,417,810,33.333333333333336,-0.383,-0.039,0.93
223940,1755602928328,22.84,-2.46,-27.59,798,916,766,347,816,34.48275862068966,-0.384,-0.04,0.931
223970,1755602928357,22.84,-2.46,-27.59,803,917,773,325,821,33.333333333333336,-0.384,-0.041,0.931
223999,1755602928387,22.84,-2.47,-27.59,811,917,776,392,809,34.48275862068966,-0.384,-0.041,0.93
224029,1755602928416,22.83,-2.47,-27.6,803,926,773,434,814,33.333333333333336,-0.384,-0.04,0.929
224058,1755602928446,22.83,-2.47,-27.6,796,925,781,385,806,34.48275862068966,-0.384,-0.04,0.93
224088,1755602928475,22.83,-2.46,-27.6,801,917,771,339,816,33.333333333333336,-0.384,-0.04,0.93
224117,1755602928505,22.85,-2.47,-27.61,801,912,774,355,817,34.48275862068966,-0.384,-0.04,0.929
224147,1755602928534,22.83,-2.48,-27.61,803,919,771,429,812,33.333333333333336,-0.383,-0.04,0.929
224176,1755602928564,22.83,-2.49,-27.62,803,913,770,405,809,34.48275862068966,-0.383,-0.04,0.93
224235,1755602928623,22.8,-2.48,-27.62,798,924,773,326,808,34.48275862068966,-0.384,-0.042,0.929
224265,1755602928652,22.8,-2.51,-27.62,802,915,772,400,814,33.333333333333336,-0.385,-0.041,0.929
224294,1755602928682,22.77,-2.55,-27.62,803,918,779,414,805,34.48275862068966,-0.385,-0.041,0.93
224324,1755602928711,22.75,-2.52,-27.61,806,920,764,360,814,33.333333333333336,-0.384,-0.041,0.931
224353,1755602928741,22.75,-2.52,-27.62,800,906,779,325,814,34.48275862068966,-0.383,-0.041,0.93
224383,1755602928770,22.74,-2.53,-27.62,806,916,773,389,811,33.333333333333336,-0.382,-0.041,0.93
224412,1755602928800,22.71,-2.53,-27.63,798,918,764,424,814,34.48275862068966,-0.382,-0.04,0.932
224442,1755602928829,22.7,-2.53,-27.63,800,908,778,388,810,33.333333333333336,-0.383,-0.041,0.932
224471,1755602928859,22.68,-2.51,-27.62,804,916,772,338,810,34.48275862068966,-0.382,-0.041,0.932
224501,1755602928888,22.65,-2.49,-27.62,799,907,773,363,815,33.333333333333336,-0.381,-0.039,0.932
224530,1755602928918,22.62,-2.49,-27.62,803,919,770,432,812,34.48275862068966,-0.379,-0.039,0.931
224560,1755602928947,22.61,-2.51,-27.64,801,917,766,413,812,33.333333333333336,-0.379,-0.04,0.931
224589,1755602928977,22.6,-2.49,-27.63,805,912,768,326,811,34.48275862068966,-0.381,-0.04,0.933
224619,1755602929006,22.59,-2.46,-27.62,802,919,772,328,811,33.333333333333336,-0.382,-0.041,0.933
224648,1755602929036,22.58,-2.46,-27.61,800,923,774,420,809,34.48275862068966,-0.38,-0.039,0.932
224678,1755602929065,22.57,-2.47,-27.62,798,917,773,427,813,33.333333333333336,-0.379,-0.039,0.932
224707,1755602929095,22.56,-2.46,-27.62,804,920,774,365,809,34.48275862068966,-0.38,-0.04,0.933
224737,1755602929125,22.57,-2.45,-27.61,802,916,769,344,811,33.333333333333336,-0.38,-0.04,0.934
224767,1755602929154,22.53,-2.43,-27.59,801,919,770,384,807,33.333333333333336,-0.38,-0.039,0.933
224796,1755602929184,22.54,-2.45,-27.59,797,922,770,426,814,34.48275862068966,-0.379,-0.038,0.932
224826,1755602929213,22.51,-2.45,-27.59,805,913,778,395,813,33.333333333333336,-0.378,-0.038,0.932
224856,1755602929243,22.52,-2.46,-27.6,792,923,772,332,807,33.333333333333336,-0.379,-0.039,0.934
224885,1755602929273,22.5,-2.44,-27.6,799,909,776,363,813,34.48275862068966,-0.379,-0.038,0.935
224914,1755602929302,22.5,-2.42,-27.59,798,906,768,437,812,34.48275862068966,-0.377,-0.038,0.934
224964,1755602929351,22.46,-2.42,-27.59,802,914,775,400,820,50.0,-0.377,-0.037,0.934
225023,1755602929411,22.44,-2.39,-27.58,800,920,774,333,810,33.333333333333336,-0.377,-0.038,0.934
225053,1755602929440,22.44,-2.38,-27.58,795,917,779,339,817,33.333333333333336,-0.377,-0.037,0.933
225082,1755602929469,22.44,-2.37,-27.59,797,904,773,414,809,34.48275862068966,-0.377,-0.036,0.934
225112,1755602929499,22.44,-2.36,-27.59,798,918,767,426,811,33.333333333333336,-0.377,-0.036,0.934
225142,1755602929529,22.45,-2.35,-27.59,794,917,768,377,810,33.333333333333336,-0.377,-0.035,0.935
225171,1755602929559,22.44,-2.34,-27.6,799,917,774,326,817,34.48275862068966,-0.376,-0.035,0.934
225201,1755602929588,22.43,-2.35,-27.62,797,910,768,363,806,33.333333333333336,-0.375,-0.035,0.934
225230,1755602929618,22.43,-2.36,-27.64,799,920,769,426,807,34.48275862068966,-0.377,-0.036,0.936
225260,1755602929648,22.42,-2.34,-27.65,801,913,774,413,804,33.333333333333336,-0.378,-0.037,0.935
225290,1755602929678,22.43,-2.33,-27.66,799,912,774,340,820,33.333333333333336,-0.377,-0.036,0.934
225310,1755602929698,22.43,-2.34,-27.66,801,913,774,421,814,50.0,-0.377,-0.036,0.933
225340,1755602929727,22.43,-2.34,-27.68,799,904,771,335,807,33.333333333333336,-0.376,-0.036,0.934
225369,1755602929757,22.42,-2.31,-27.69,797,920,771,347,810,34.48275862068966,-0.376,-0.036,0.935
225399,1755602929786,22.43,-2.28,-27.7,805,914,771,408,814,33.333333333333336,-0.377,-0.036,0.934
225428,1755602929816,22.44,-2.28,-27.71,797,923,775,411,820,34.48275862068966,-0.377,-0.036,0.932
225458,1755602929845,22.46,-2.27,-27.71,807,907,777,357,809,33.333333333333336,-0.377,-0.036,0.933
225487,1755602929875,22.48,-2.23,-27.7,801,912,779,331,812,34.48275862068966,-0.377,-0.036,0.935
225517,1755602929904,22.5,-2.18,-27.69,799,920,779,374,815,33.333333333333336,-0.376,-0.035,0.935
225546,1755602929933,22.49,-2.17,-27.7,802,921,777,402,808,34.48275862068966,-0.375,-0.034,0.932
225605,1755602929993,22.45,-2.23,-27.74,793,918,768,343,810,33.333333333333336,-0.377,-0.034,0.933
225635,1755602930023,22.47,-2.19,-27.74,795,919,771,348,810,33.333333333333336,-0.379,-0.034,0.936
225665,1755602930052,22.48,-2.16,-27.73,803,910,772,418,812,33.333333333333336,-0.378,-0.034,0.933
225694,1755602930082,22.47,-2.19,-27.74,796,919,773,416,814,34.48275862068966,-0.376,-0.034,0.932
225724,1755602930111,22.45,-2.22,-27.75,801,923,771,344,811,33.333333333333336,-0.376,-0.034,0.934
225753,1755602930141,22.44,-2.19,-27.75,798,917,770,348,806,34.48275862068966,-0.377,-0.034,0.935
225783,1755602930170,22.44,-2.17,-27.75,797,920,769,405,807,33.333333333333336,-0.377,-0.034,0.933
225812,1755602930200,22.45,-2.18,-27.74,800,910,777,407,808,34.48275862068966,-0.377,-0.034,0.932
225842,1755602930230,22.44,-2.19,-27.74,802,910,770,369,816,33.333333333333336,-0.377,-0.033,0.933
225871,1755602930259,22.45,-2.19,-27.75,812,911,779,308,821,34.48275862068966,-0.377,-0.032,0.933
225901,1755602930289,22.43,-2.18,-27.75,801,916,774,358,817,33.333333333333336,-0.377,-0.034,0.933
225931,1755602930318,22.45,-2.2,-27.76,796,923,776,432,812,33.333333333333336,-0.377,-0.034,0.933
225960,1755602930348,22.45,-2.21,-27.77,789,923,764,417,814,34.48275862068966,-0.377,-0.034,0.933
225990,1755602930377,22.44,-2.22,-27.78,801,915,770,346,813,33.333333333333336,-0.377,-0.033,0.933
226019,1755602930407,22.45,-2.22,-27.79,798,922,773,335,813,34.48275862068966,-0.378,-0.035,0.934
226049,1755602930436,22.45,-2.2,-27.78,797,904,770,416,813,33.333333333333336,-0.378,-0.035,0.934
226078,1755602930466,22.45,-2.19,-27.78,801,935,774,430,817,34.48275862068966,-0.377,-0.034,0.933
226108,1755602930495,22.47,-2.22,-27.78,802,930,777,353,813,33.333333333333336,-0.377,-0.033,0.932
226137,1755602930525,22.46,-2.23,-27.79,800,917,769,335,811,34.48275862068966,-0.378,-0.033,0.934
226167,1755602930554,22.46,-2.22,-27.79,799,917,768,397,810,33.333333333333336,-0.378,-0.034,0.935
226196,1755602930584,22.46,-2.2,-27.77,800,921,769,427,819,34.48275862068966,-0.377,-0.034,0.934
226226,1755602930613,22.47,-2.21,-27.78,798,918,769,388,820,33.333333333333336,-0.376,-0.033,0.934
226256,1755602930643,22.47,-2.21,-27.79,804,906,773,334,819,33.333333333333336,-0.376,-0.033,0.934
226285,1755602930673,22.46,-2.19,-27.8,801,919,775,336,811,34.48275862068966,-0.378,-0.034,0.934
226315,1755602930703,22.46,-2.15,-27.8,802,913,768,409,810,33.333333333333336,-0.379,-0.034,0.934
226345,1755602930732,22.45,-2.12,-27.8,800,919,772,395,812,33.333333333333336,-0.379,-0.034,0.933
226374,1755602930762,22.45,-2.11,-27.8,803,912,765,339,818,34.48275862068966,-0.378,-0.034,0.932
226404,1755602930791,22.43,-2.11,-27.81,801,916,775,319,808,33.333333333333336,-0.378,-0.033,0.932
226433,1755602930821,22.44,-2.11,-27.81,801,918,772,393,811,34.48275862068966,-0.378,-0.032,0.933
226462,1755602930850,22.44,-2.11,-27.81,802,915,777,427,811,34.48275862068966,-0.378,-0.032,0.933
226492,1755602930879,22.45,-2.09,-27.79,802,918,779,380,807,33.333333333333336,-0.378,-0.032,0.933
226521,1755602930909,22.45,-2.09,-27.79,800,920,773,312,816,34.48275862068966,-0.377,-0.032,0.931
226551,1755602930939,22.46,-2.13,-27.8,801,915,772,360,815,33.333333333333336,-0.377,-0.032,0.93
226581,1755602930968,22.48,-2.15,-27.81,801,916,775,426,806,33.333333333333336,-0.379,-0.032,0.932
226610,1755602930997,22.49,-2.12,-27.8,797,921,770,412,811,34.48275862068966,-0.379,-0.032,0.932
226669,1755602931057,22.49,-2.15,-27.82,796,921,774,315,810,34.48275862068966,-0.378,-0.032,0.93
226689,1755602931077,22.48,-2.17,-27.83,797,920,776,373,814,50.0,-0.379,-0.033,0.931
226719,1755602931106,22.49,-2.14,-27.82,800,908,778,359,815,33.333333333333336,-0.38,-0.034,0.934
226748,1755602931136,22.5,-2.11,-27.81,803,918,770,413,813,34.48275862068966,-0.379,-0.032,0.933
226778,1755602931165,22.48,-2.11,-27.82,807,930,773,409,815,33.333333333333336,-0.377,-0.031,0.93
226807,1755602931195,22.46,-2.14,-27.85,798,908,772,353,811,34.48275862068966,-0.377,-0.032,0.931
226837,1755602931224,22.45,-2.13,-27.86,801,910,773,337,807,33.333333333333336,-0.379,-0.033,0.934
226866,1755602931254,22.45,-2.11,-27.86,800,909,773,412,804,34.48275862068966,-0.378,-0.033,0.933
226896,1755602931284,22.44,-2.12,-27.86,804,910,775,420,804,33.333333333333336,-0.377,-0.032,0.93
226926,1755602931313,22.44,-2.16,-27.88,803,923,779,377,812,33.333333333333336,-0.378,-0.033,0.931
226955,1755602931343,22.44,-2.16,-27.88,800,918,775,320,814,34.48275862068966,-0.379,-0.033,0.932
226985,1755602931372,22.46,-2.16,-27.87,802,917,776,350,807,33.333333333333336,-0.379,-0.034,0.932
227014,1755602931401,22.45,-2.16,-27.86,802,914,773,430,810,34.48275862068966,-0.379,-0.033,0.932
227043,1755602931431,22.43,-2.17,-27.87,802,913,772,369,815,34.48275862068966,-0.378,-0.033,0.932
227073,1755602931460,22.4,-2.21,-27.87,801,907,776,314,806,33.333333333333336,-0.377,-0.033,0.932
227102,1755602931490,22.37,-2.21,-27.88,800,906,777,338,814,34.48275862068966,-0.378,-0.034,0.933
227132,1755602931519,22.38,-2.21,-27.87,799,918,778,419,812,33.333333333333336,-0.378,-0.034,0.933
227161,1755602931549,22.39,-2.23,-27.87,804,918,778,419,813,34.48275862068966,-0.377,-0.034,0.932
227191,1755602931578,22.37,-2.27,-27.85,799,921,777,345,807,33.333333333333336,-0.377,-0.034,0.932
227220,1755602931608,22.39,-2.32,-27.86,798,918,770,331,810,34.48275862068966,-0.378,-0.035,0.933
227250,1755602931638,22.38,-2.3,-27.85,804,917,776,377,817,33.333333333333336,-0.378,-0.036,0.935
227280,1755602931667,22.38,-2.28,-27.84,802,917,768,415,814,33.333333333333336,-0.377,-0.036,0.934
227309,1755602931697,22.36,-2.28,-27.83,803,920,765,379,818,34.48275862068966,-0.377,-0.036,0.933
227339,1755602931727,22.36,-2.29,-27.82,800,915,774,321,812,33.333333333333336,-0.377,-0.036,0.933
227369,1755602931756,22.36,-2.28,-27.8,801,907,780,356,812,33.333333333333336,-0.377,-0.035,0.934
227398,1755602931785,22.36,-2.27,-27.8,804,909,776,393,812,34.48275862068966,-0.376,-0.035,0.933
227427,1755602931815,22.35,-2.29,-27.81,801,915,768,382,811,34.48275862068966,-0.375,-0.035,0.933
227457,1755602931845,22.33,-2.3,-27.81,805,911,777,323,821,33.333333333333336,-0.375,-0.035,0.934
227487,1755602931874,22.34,-2.29,-27.81,800,915,768,330,813,33.333333333333336,-0.376,-0.036,0.935
227516,1755602931904,22.33,-2.27,-27.81,801,923,777,384,809,34.48275862068966,-0.376,-0.035,0.934
227546,1755602931934,22.33,-2.27,-27.81,800,917,771,424,812,33.333333333333336,-0.376,-0.035,0.933
227576,1755602931963,22.32,-2.29,-27.81,801,925,770,384,817,33.333333333333336,-0.376,-0.035,0.933
227605,1755602931993,22.32,-2.28,-27.81,798,919,773,331,812,34.48275862068966,-0.376,-0.035,0.935
227635,1755602932022,22.31,-2.26,-27.8,802,917,772,354,809,33.333333333333336,-0.376,-0.035,0.935
227694,1755602932082,22.32,-2.28,-27.81,802,912,770,405,814,33.333333333333336,-0.374,-0.035,0.934
227753,1755602932141,22.31,-2.26,-27.81,801,920,775,325,815,34.48275862068966,-0.375,-0.035,0.936
227783,1755602932170,22.32,-2.25,-27.82,799,915,777,354,817,33.333333333333336,-0.375,-0.034,0.935
227812,1755602932200,22.31,-2.25,-27.82,803,927,771,394,806,34.48275862068966,-0.374,-0.035,0.934
227842,1755602932230,22.32,-2.28,-27.83,794,917,769,350,809,33.333333333333336,-0.374,-0.035,0.934
227871,1755602932259,22.31,-2.29,-27.84,801,918,773,317,805,34.48275862068966,-0.375,-0.034,0.936
227901,1755602932290,22.3,-2.28,-27.84,802,920,774,352,815,33.333333333333336,-0.374,-0.034,0.935
227922,1755602932309,22.32,-2.28,-27.85,797,923,770,361,815,47.61904761904762,-0.374,-0.034,0.934
227981,1755602932369,22.31,-2.29,-27.87,802,905,776,423,817,33.333333333333336,-0.376,-0.036,0.935
228011,1755602932398,22.29,-2.29,-27.86,804,917,765,409,815,33.333333333333336,-0.375,-0.036,0.935
228040,1755602932428,22.31,-2.28,-27.88,799,916,771,328,812,34.48275862068966,-0.375,-0.035,0.935
228070,1755602932457,22.31,-2.28,-27.89,799,913,777,350,815,33.333333333333336,-0.375,-0.035,0.934
228099,1755602932487,22.3,-2.28,-27.89,802,921,782,375,814,34.48275862068966,-0.377,-0.036,0.934
228129,1755602932517,22.29,-2.29,-27.88,801,913,776,407,812,33.333333333333336,-0.377,-0.036,0.935
228159,1755602932546,22.29,-2.28,-27.89,802,915,769,367,817,33.333333333333336,-0.375,-0.035,0.935
228188,1755602932576,22.31,-2.29,-27.91,800,912,773,335,810,34.48275862068966,-0.374,-0.035,0.935
228248,1755602932635,22.29,-2.28,-27.94,802,919,770,434,810,33.333333333333336,-0.375,-0.035,0.935
228277,1755602932665,22.31,-2.29,-27.95,798,914,769,399,815,34.48275862068966,-0.376,-0.036,0.935
228307,1755602932695,22.28,-2.28,-27.96,802,917,773,340,817,33.333333333333336,-0.376,-0.036,0.935
228337,1755602932724,22.3,-2.29,-27.96,805,919,775,333,807,33.333333333333336,-0.376,-0.037,0.935
228366,1755602932754,22.3,-2.28,-27.96,800,907,776,392,808,34.48275862068966,-0.375,-0.036,0.935
228396,1755602932783,22.3,-2.28,-27.98,799,918,773,421,812,33.333333333333336,-0.375,-0.034,0.935
228425,1755602932813,22.3,-2.29,-28.0,802,920,771,357,821,34.48275862068966,-0.375,-0.034,0.935
228455,1755602932842,22.31,-2.31,-28.02,800,915,777,320,812,33.333333333333336,-0.376,-0.036,0.935
228484,1755602932872,22.3,-2.31,-28.02,795,922,771,360,812,34.48275862068966,-0.377,-0.037,0.936
228514,1755602932901,22.31,-2.31,-28.02,802,917,774,424,806,33.333333333333336,-0.376,-0.037,0.935
228543,1755602932931,22.31,-2.32,-28.03,802,913,774,382,812,34.48275862068966,-0.375,-0.036,0.935
228573,1755602932961,22.3,-2.32,-28.03,801,920,771,319,813,33.333333333333336,-0.374,-0.035,0.936
228603,1755602932990,22.3,-2.32,-28.05,801,915,773,336,807,33.333333333333336,-0.374,-0.036,0.936
228632,1755602933020,22.3,-2.32,-28.06,805,918,770,411,805,34.48275862068966,-0.375,-0.038,0.936
228662,1755602933049,22.3,-2.33,-28.07,799,912,767,405,813,33.333333333333336,-0.375,-0.037,0.935
228691,1755602933079,22.3,-2.34,-28.07,802,911,773,352,814,34.48275862068966,-0.376,-0.036,0.935
228721,1755602933108,22.29,-2.34,-28.08,793,920,773,340,810,33.333333333333336,-0.376,-0.037,0.936
228750,1755602933138,22.3,-2.36,-28.08,800,920,774,384,816,34.48275862068966,-0.376,-0.038,0.936
228780,1755602933167,22.29,-2.36,-28.08,802,931,769,409,814,33.333333333333336,-0.375,-0.038,0.936
228809,1755602933197,22.28,-2.41,-28.09,800,907,774,343,812,34.48275862068966,-0.374,-0.038,0.935
228839,1755602933226,22.27,-2.43,-28.1,796,922,774,298,815,33.333333333333336,-0.375,-0.038,0.936
228868,1755602933256,22.28,-2.42,-28.1,804,916,772,348,814,34.48275862068966,-0.377,-0.038,0.937
228898,1755602933286,22.28,-2.41,-28.09,794,914,771,409,813,33.333333333333336,-0.377,-0.039,0.936
228928,1755602933315,22.29,-2.42,-28.08,802,910,776,405,815,33.333333333333336,-0.376,-0.039,0.936
228957,1755602933346,22.3,-2.42,-28.09,800,919,774,340,822,34.48275862068966,-0.376,-0.038,0.936
228978,1755602933365,22.3,-2.41,-28.09,803,916,777,414,812,47.61904761904762,-0.375,-0.037,0.937
229007,1755602933395,22.3,-2.41,-28.1,802,919,773,327,817,34.48275862068966,-0.375,-0.038,0.936
229037,1755602933424,22.31,-2.41,-28.11,801,920,765,334,806,33.333333333333336,-0.376,-0.038,0.937
229066,1755602933454,22.32,-2.42,-28.12,796,909,778,402,817,34.48275862068966,-0.377,-0.039,0.936
229096,1755602933483,22.3,-2.42,-28.12,793,915,768,404,813,33.333333333333336,-0.376,-0.038,0.935
229125,1755602933513,22.31,-2.43,-28.13,808,903,773,361,815,34.48275862068966,-0.376,-0.038,0.936
229184,1755602933572,22.3,-2.44,-28.14,802,918,776,371,808,34.48275862068966,-0.376,-0.039,0.936
229214,1755602933601,22.32,-2.43,-28.14,798,911,770,427,809,33.333333333333336,-0.377,-0.038,0.936
229243,1755602933631,22.33,-2.43,-28.15,805,923,767,394,816,34.48275862068966,-0.377,-0.038,0.935
229273,1755602933661,22.33,-2.45,-28.16,796,922,768,313,816,33.333333333333336,-0.376,-0.039,0.935
229303,1755602933690,22.33,-2.46,-28.17,801,913,772,339,814,33.333333333333336,-0.376,-0.039,0.936
229332,1755602933720,22.34,-2.46,-28.17,799,918,771,422,808,34.48275862068966,-0.376,-0.04,0.936
229362,1755602933749,22.36,-2.47,-28.18,804,921,778,420,812,33.333333333333336,-0.377,-0.039,0.935
229391,1755602933779,22.35,-2.47,-28.18,803,917,772,339,808,34.48275862068966,-0.378,-0.04,0.936
229421,1755602933808,22.36,-2.47,-28.18,798,916,771,321,815,33.333333333333336,-0.378,-0.041,0.935
229450,1755602933838,22.37,-2.49,-28.18,797,916,773,378,812,34.48275862068966,-0.377,-0.04,0.935
229480,1755602933867,22.35,-2.5,-28.19,802,913,780,423,814,33.333333333333336,-0.377,-0.04,0.935
229539,1755602933926,22.38,-2.51,-28.21,798,918,772,327,807,33.333333333333336,-0.377,-0.04,0.936
229568,1755602933956,22.39,-2.51,-28.21,802,930,777,348,811,34.48275862068966,-0.378,-0.04,0.935
229598,1755602933985,22.38,-2.52,-28.21,798,918,774,426,812,33.333333333333336,-0.378,-0.04,0.935
229627,1755602934015,22.39,-2.53,-28.21,801,917,774,411,812,34.48275862068966,-0.377,-0.041,0.935
229657,1755602934044,22.38,-2.52,-28.21,804,916,775,327,812,33.333333333333336,-0.377,-0.04,0.936
229686,1755602934074,22.39,-2.5,-28.22,798,919,774,295,809,34.48275862068966,-0.378,-0.041,0.936
229716,1755602934103,22.4,-2.46,-28.21,798,921,768,384,812,33.333333333333336,-0.378,-0.04,0.936
229745,1755602934133,22.42,-2.45,-28.21,804,918,769,402,819,34.48275862068966,-0.378,-0.04,0.934
229775,1755602934162,22.39,-2.47,-28.23,806,914,773,335,818,33.333333333333336,-0.376,-0.039,0.933
229804,1755602934192,22.39,-2.5,-28.25,801,905,773,332,810,34.48275862068966,-0.376,-0.039,0.934
229834,1755602934222,22.37,-2.5,-28.27,803,922,772,391,809,33.333333333333336,-0.378,-0.04,0.936
229863,1755602934251,22.37,-2.5,-28.28,795,904,773,417,817,34.48275862068966,-0.378,-0.041,0.935
229893,1755602934281,22.36,-2.5,-28.3,799,919,770,398,809,33.333333333333336,-0.378,-0.04,0.934
229922,1755602934310,22.34,-2.51,-28.31,796,918,773,321,814,34.48275862068966,-0.379,-0.04,0.934
229952,1755602934340,22.33,-2.49,-28.32,794,910,773,353,817,33.333333333333336,-0.378,-0.041,0.935
229982,1755602934369,22.33,-2.49,-28.34,801,908,773,433,809,33.333333333333336,-0.377,-0.041,0.935
230011,1755602934399,22.32,-2.49,-28.35,803,917,776,409,811,34.48275862068966,-0.377,-0.04,0.934
230041,1755602934428,22.32,-2.49,-28.37,797,903,773,343,811,33.333333333333336,-0.377,-0.04,0.935
230100,1755602934487,22.31,-2.5,-28.39,801,919,769,379,810,33.333333333333336,-0.378,-0.04,0.934
230129,1755602934517,22.31,-2.52,-28.41,796,923,770,369,812,34.48275862068966,-0.378,-0.04,0.934
230188,1755602934576,22.31,-2.52,-28.42,797,917,775,276,810,34.48275862068966,-0.378,-0.042,0.935
230218,1755602934606,22.32,-2.53,-28.42,802,917,772,335,805,33.333333333333336,-0.377,-0.041,0.935
230238,1755602934626,22.32,-2.52,-28.42,800,916,777,331,814,50.0,-0.377,-0.041,0.935
230268,1755602934655,22.32,-2.52,-28.42,803,910,777,369,813,33.333333333333336,-0.376,-0.041,0.935
230327,1755602934714,22.33,-2.52,-28.45,801,912,772,386,811,33.333333333333336,-0.377,-0.041,0.935
230356,1755602934744,22.31,-2.51,-28.45,798,914,768,287,814,34.48275862068966,-0.378,-0.041,0.935
230386,1755602934773,22.32,-2.5,-28.45,803,921,770,311,816,33.333333333333336,-0.377,-0.041,0.934
230415,1755602934803,22.32,-2.51,-28.45,795,910,775,392,815,34.48275862068966,-0.376,-0.04,0.933
230474,1755602934862,22.32,-2.52,-28.46,804,913,775,310,810,34.48275862068966,-0.379,-0.042,0.94
230504,1755602934891,22.31,-2.49,-28.44,804,910,775,330,809,33.333333333333336,-0.378,-0.04,0.938
230533,1755602934921,22.3,-2.48,-28.44,799,925,777,402,813,34.48275862068966,-0.377,-0.039,0.936
230563,1755602934950,22.3,-2.49,-28.45,797,917,766,419,810,33.333333333333336,-0.376,-0.039,0.935
230592,1755602934980,22.28,-2.49,-28.45,795,924,776,361,811,34.48275862068966,-0.377,-0.041,0.936
230622,1755602935009,22.28,-2.5,-28.45,800,920,768,334,811,33.333333333333336,-0.377,-0.041,0.936
230651,1755602935039,22.29,-2.49,-28.45,801,913,770,367,815,34.48275862068966,-0.377,-0.04,0.936
