timestamp_ms,recv_timestamp_ms,pitch,roll,yaw,flex1,flex2,flex3,flex4,flex5,sampling_hz,accel_x,accel_y,accel_z
187893,1755608593435,10.45,62.83,-101.77,835,897,829,440,819,33.333333333333336,-0.187,0.906,0.39
187922,1755608593438,10.43,62.78,-101.79,831,892,830,415,820,34.48275862068966,-0.182,0.907,0.388
187951,1755608593440,10.42,62.78,-101.83,836,895,825,329,813,34.48275862068966,-0.181,0.908,0.391
187981,1755608593442,10.4,62.82,-101.84,832,894,828,311,820,33.333333333333336,-0.178,0.909,0.39
188010,1755608593444,10.4,62.82,-101.88,832,891,830,410,819,34.48275862068966,-0.177,0.905,0.386
188040,1755608593446,10.38,62.78,-101.92,836,885,829,442,821,33.333333333333336,-0.181,0.907,0.387
188069,1755608593448,10.35,62.78,-101.92,831,884,825,371,821,34.48275862068966,-0.183,0.909,0.392
188099,1755608593450,10.38,62.77,-101.99,833,893,826,292,818,33.333333333333336,-0.183,0.908,0.391
188128,1755608593452,10.39,62.76,-102.07,830,888,831,356,819,34.48275862068966,-0.18,0.904,0.387
188158,1755608593455,10.37,62.71,-102.21,829,893,827,451,819,33.333333333333336,-0.175,0.904,0.388
188187,1755608593457,10.41,62.74,-102.32,834,896,830,395,818,34.48275862068966,-0.185,0.909,0.396
188217,1755608593459,10.46,62.8,-102.37,836,888,829,300,821,33.333333333333336,-0.193,0.909,0.397
188237,1755608593461,10.52,62.87,-102.41,830,903,834,440,816,50.0,-0.197,0.905,0.392
188266,1755608593462,10.56,62.82,-102.46,835,894,819,327,818,34.48275862068966,-0.192,0.902,0.387
188296,1755608593464,10.52,62.78,-102.47,832,893,830,361,819,33.333333333333336,-0.188,0.905,0.387
188326,1755608593467,10.51,62.72,-102.54,834,889,834,463,824,33.333333333333336,-0.193,0.908,0.392
188355,1755608593469,10.52,62.79,-102.55,831,902,826,440,821,34.48275862068966,-0.194,0.907,0.396
188385,1755608593471,10.55,62.82,-102.6,835,890,824,311,820,33.333333333333336,-0.192,0.906,0.392
188414,1755608593474,10.55,62.83,-102.62,834,888,831,325,821,34.48275862068966,-0.194,0.906,0.39
188443,1755608593475,10.57,62.81,-102.65,831,894,829,428,822,34.48275862068966,-0.194,0.904,0.391
188473,1755608593478,10.61,62.77,-102.7,829,894,828,450,821,33.333333333333336,-0.195,0.903,0.392
188502,1755608593480,10.6,62.78,-102.68,834,894,826,359,822,34.48275862068966,-0.197,0.906,0.393
188532,1755608593482,10.65,62.79,-102.73,831,896,825,309,817,33.333333333333336,-0.196,0.905,0.393
188562,1755608593483,10.69,62.79,-102.73,828,893,831,364,821,33.333333333333336,-0.196,0.904,0.39
188591,1755608593486,10.68,62.76,-102.75,832,895,833,466,813,34.48275862068966,-0.194,0.905,0.388
188621,1755608593488,10.67,62.73,-102.78,833,892,822,415,815,33.333333333333336,-0.196,0.905,0.392
188650,1755608593490,10.7,62.77,-102.77,834,897,831,295,815,34.48275862068966,-0.197,0.905,0.394
188680,1755608593492,10.73,62.8,-102.79,834,892,832,338,815,33.333333333333336,-0.195,0.905,0.39
188709,1755608593494,10.72,62.74,-102.79,832,893,826,437,817,34.48275862068966,-0.192,0.904,0.389
188739,1755608593496,10.73,62.73,-102.84,835,892,826,444,818,33.333333333333336,-0.194,0.905,0.391
188768,1755608593498,10.72,62.72,-102.87,830,900,823,327,819,34.48275862068966,-0.195,0.906,0.392
188798,1755608593500,10.7,62.72,-102.88,833,897,826,303,816,33.333333333333336,-0.195,0.905,0.391
188828,1755608593502,10.71,62.68,-102.92,836,896,828,378,819,33.333333333333336,-0.195,0.903,0.39
188857,1755608593504,10.7,62.66,-102.9,837,890,830,438,818,34.48275862068966,-0.197,0.906,0.391
188887,1755608593506,10.7,62.65,-102.92,836,898,823,398,820,33.333333333333336,-0.197,0.906,0.393
188975,1755608593512,10.72,62.65,-102.99,834,895,825,450,820,33.333333333333336,-0.197,0.903,0.391
189034,1755608593516,10.72,62.63,-102.96,828,895,826,290,818,33.333333333333336,-0.196,0.905,0.393
189054,1755608593518,10.72,62.66,-102.98,834,894,822,447,819,50.0,-0.192,0.905,0.392
189084,1755608593521,10.71,62.66,-102.98,836,893,824,309,816,33.333333333333336,-0.19,0.905,0.392
189113,1755608593522,10.7,62.65,-103.02,833,894,827,339,820,34.48275862068966,-0.19,0.906,0.394
189202,1755608593528,10.71,62.67,-103.1,836,889,826,352,823,33.333333333333336,-0.196,0.905,0.393
189231,1755608593530,10.72,62.7,-103.13,834,896,826,320,817,34.48275862068966,-0.198,0.908,0.392
189261,1755608593533,10.75,62.71,-103.15,831,892,822,396,817,33.333333333333336,-0.195,0.907,0.392
189290,1755608593548,10.78,62.71,-103.22,832,895,830,464,817,34.48275862068966,-0.191,0.906,0.39
189320,1755608593577,10.76,62.68,-103.27,838,896,832,385,819,33.333333333333336,-0.192,0.907,0.388
189350,1755608593607,10.81,62.7,-103.31,833,892,827,294,820,33.333333333333336,-0.2,0.907,0.391
189379,1755608593636,10.86,62.73,-103.32,836,895,823,337,820,34.48275862068966,-0.2,0.904,0.388
189409,1755608593666,10.88,62.73,-103.29,833,892,832,463,818,33.333333333333336,-0.199,0.904,0.388
189438,1755608593695,10.87,62.74,-103.25,835,894,831,421,820,34.48275862068966,-0.196,0.907,0.392
189468,1755608593725,10.89,62.78,-103.29,832,886,828,317,816,33.333333333333336,-0.191,0.907,0.393
189497,1755608593755,10.91,62.8,-103.4,834,893,826,332,821,34.48275862068966,-0.19,0.907,0.389
189527,1755608593784,10.88,62.79,-103.44,833,894,828,409,822,33.333333333333336,-0.193,0.904,0.39
189556,1755608593813,10.91,62.81,-103.46,836,889,829,457,816,34.48275862068966,-0.2,0.905,0.39
189586,1755608593843,10.93,62.83,-103.45,833,898,832,370,820,33.333333333333336,-0.201,0.906,0.391
189615,1755608593872,10.92,62.82,-103.46,830,893,827,309,823,34.48275862068966,-0.194,0.904,0.389
189645,1755608593902,10.92,62.77,-103.54,833,902,829,350,819,33.333333333333336,-0.192,0.904,0.388
189674,1755608593931,10.9,62.75,-103.58,835,894,830,465,821,34.48275862068966,-0.197,0.906,0.391
189704,1755608593961,10.91,62.79,-103.62,833,888,826,417,816,33.333333333333336,-0.199,0.907,0.393
189733,1755608593990,10.94,62.8,-103.66,832,892,827,284,820,34.48275862068966,-0.2,0.904,0.39
189763,1755608594020,10.92,62.77,-103.67,832,898,830,344,817,33.333333333333336,-0.199,0.902,0.386
189792,1755608594049,10.91,62.73,-103.66,835,894,825,460,817,34.48275862068966,-0.2,0.904,0.389
189821,1755608594078,10.93,62.75,-103.69,830,895,831,410,827,34.48275862068966,-0.202,0.908,0.392
189851,1755608594108,10.96,62.81,-103.69,830,899,824,311,815,33.333333333333336,-0.2,0.906,0.39
189881,1755608594137,10.94,62.79,-103.72,831,893,827,318,818,33.333333333333336,-0.197,0.906,0.388
189910,1755608594167,10.94,62.77,-103.74,831,892,820,414,816,34.48275862068966,-0.199,0.906,0.391
189939,1755608594196,10.96,62.79,-103.74,830,889,826,444,815,34.48275862068966,-0.2,0.905,0.391
189969,1755608594226,10.96,62.8,-103.73,835,892,821,348,811,33.333333333333336,-0.2,0.905,0.389
189998,1755608594255,10.95,62.79,-103.74,832,892,820,302,818,34.48275862068966,-0.197,0.905,0.39
190028,1755608594285,10.96,62.79,-103.81,835,894,830,361,821,33.333333333333336,-0.195,0.906,0.39
190057,1755608594314,10.94,62.78,-103.83,831,892,828,459,817,34.48275862068966,-0.197,0.908,0.391
190087,1755608594344,10.97,62.77,-103.92,835,892,825,404,814,33.333333333333336,-0.197,0.906,0.391
190116,1755608594373,11.04,62.71,-104.11,834,891,826,302,815,34.48275862068966,-0.198,0.902,0.39
190145,1755608594402,11.03,62.71,-104.05,834,892,827,337,823,34.48275862068966,-0.202,0.904,0.392
190175,1755608594432,11.06,62.69,-104.08,834,895,825,452,815,33.333333333333336,-0.205,0.905,0.394
190204,1755608594461,11.08,62.72,-104.12,835,890,832,411,818,34.48275862068966,-0.2,0.903,0.391
190234,1755608594491,11.05,62.69,-104.12,831,887,825,257,819,33.333333333333336,-0.198,0.903,0.39
190263,1755608594520,11.03,62.65,-104.17,835,893,830,312,821,34.48275862068966,-0.199,0.904,0.393
190293,1755608594550,11.05,62.67,-104.21,837,893,827,432,826,33.333333333333336,-0.204,0.903,0.397
190322,1755608594579,11.06,62.69,-104.23,832,890,826,445,821,34.48275862068966,-0.201,0.902,0.394
190352,1755608594609,11.06,62.67,-104.26,836,898,832,347,824,33.333333333333336,-0.199,0.902,0.391
190411,1755608594667,11.03,62.63,-104.32,830,892,826,401,813,33.333333333333336,-0.204,0.904,0.393
190440,1755608594697,11.03,62.56,-104.34,833,893,824,437,820,34.48275862068966,-0.202,0.901,0.391
190469,1755608594726,11.01,62.56,-104.32,828,894,827,368,819,34.48275862068966,-0.202,0.902,0.394
190499,1755608594756,11.02,62.57,-104.37,835,894,828,295,821,33.333333333333336,-0.202,0.905,0.395
190528,1755608594785,11.03,62.57,-104.45,833,897,828,356,822,34.48275862068966,-0.201,0.903,0.392
190558,1755608594815,11.02,62.54,-104.48,835,893,831,463,817,33.333333333333336,-0.202,0.9,0.392
190587,1755608594844,11.03,62.53,-104.54,833,896,829,424,817,34.48275862068966,-0.204,0.901,0.395
190617,1755608594874,11.05,62.54,-104.53,831,886,827,300,817,33.333333333333336,-0.207,0.903,0.397
190646,1755608594904,11.12,62.54,-104.59,830,891,835,319,816,34.48275862068966,-0.203,0.901,0.397
190676,1755608594934,11.16,62.56,-104.61,843,892,824,424,821,33.333333333333336,-0.2,0.901,0.392
190706,1755608594963,11.12,62.51,-104.63,834,893,831,444,819,33.333333333333336,-0.199,0.902,0.389
190736,1755608594992,11.12,62.46,-104.69,835,895,827,349,819,33.333333333333336,-0.202,0.903,0.392
190765,1755608595022,11.11,62.45,-104.69,833,897,828,284,816,34.48275862068966,-0.202,0.903,0.394
190794,1755608595051,11.12,62.47,-104.72,830,888,820,358,816,34.48275862068966,-0.204,0.903,0.394
190824,1755608595081,11.12,62.43,-104.75,831,897,828,462,818,33.333333333333336,-0.206,0.902,0.395
190853,1755608595110,11.13,62.42,-104.75,831,893,827,400,822,34.48275862068966,-0.205,0.9,0.396
190882,1755608595139,11.11,62.44,-104.73,836,892,827,287,818,34.48275862068966,-0.204,0.903,0.395
190912,1755608595169,11.11,62.41,-104.81,834,898,827,340,821,33.333333333333336,-0.199,0.903,0.395
190941,1755608595198,11.1,62.39,-104.87,835,887,830,459,816,34.48275862068966,-0.202,0.903,0.396
190971,1755608595228,11.11,62.38,-104.9,832,891,831,411,818,33.333333333333336,-0.206,0.903,0.399
191000,1755608595257,11.14,62.42,-104.94,831,888,823,299,816,34.48275862068966,-0.206,0.901,0.398
191030,1755608595287,11.12,62.4,-104.96,837,895,832,342,820,33.333333333333336,-0.204,0.899,0.394
191059,1755608595316,11.11,62.34,-104.99,830,891,827,451,819,34.48275862068966,-0.205,0.9,0.396
191119,1755608595376,11.17,62.34,-105.05,827,885,823,333,816,33.333333333333336,-0.208,0.901,0.399
191148,1755608595405,11.18,62.33,-105.08,835,888,829,294,818,34.48275862068966,-0.207,0.898,0.398
191177,1755608595435,11.17,62.32,-105.09,834,896,831,371,819,34.48275862068966,-0.208,0.9,0.4
191207,1755608595464,11.19,62.35,-105.09,834,893,830,443,823,33.333333333333336,-0.209,0.901,0.399
191237,1755608595494,11.21,62.35,-105.08,832,895,829,383,819,33.333333333333336,-0.209,0.9,0.4
191266,1755608595523,11.23,62.34,-105.1,833,893,819,298,821,34.48275862068966,-0.207,0.899,0.4
191296,1755608595553,11.21,62.35,-105.09,835,886,831,335,816,33.333333333333336,-0.205,0.901,0.397
191326,1755608595583,11.21,62.34,-105.14,834,892,828,440,822,33.333333333333336,-0.207,0.901,0.399
191355,1755608595612,11.22,62.32,-105.14,832,891,825,432,818,34.48275862068966,-0.208,0.9,0.399
191385,1755608595642,11.25,62.3,-105.16,834,894,832,320,821,33.333333333333336,-0.207,0.899,0.399
191415,1755608595671,11.26,62.29,-105.15,830,893,825,298,816,33.333333333333336,-0.207,0.9,0.399
191473,1755608595730,11.28,62.3,-105.22,831,887,831,444,818,34.48275862068966,-0.206,0.9,0.396
191503,1755608595759,11.28,62.3,-105.21,836,896,830,348,823,33.333333333333336,-0.206,0.897,0.397
191532,1755608595789,11.3,62.3,-105.24,834,889,824,288,815,34.48275862068966,-0.203,0.9,0.399
191562,1755608595819,11.34,62.31,-105.36,833,891,821,345,816,33.333333333333336,-0.205,0.902,0.399
191591,1755608595848,11.34,62.3,-105.39,833,897,831,458,820,34.48275862068966,-0.208,0.9,0.399
191621,1755608595878,11.35,62.29,-105.39,833,888,828,424,818,33.333333333333336,-0.205,0.899,0.397
191650,1755608595907,11.37,62.25,-105.44,835,896,827,300,820,34.48275862068966,-0.207,0.901,0.397
191679,1755608595936,11.39,62.23,-105.47,832,898,827,328,821,34.48275862068966,-0.209,0.901,0.401
191709,1755608595966,11.42,62.29,-105.49,830,892,823,439,814,33.333333333333336,-0.206,0.9,0.4
191738,1755608595996,11.4,62.27,-105.52,830,885,827,428,815,34.48275862068966,-0.208,0.899,0.399
191768,1755608596025,11.4,62.25,-105.54,833,890,824,336,822,33.333333333333336,-0.207,0.899,0.399
191798,1755608596054,11.42,62.23,-105.58,835,897,827,307,819,33.333333333333336,-0.209,0.899,0.399
191827,1755608596084,11.4,62.23,-105.58,833,892,826,409,818,34.48275862068966,-0.208,0.899,0.398
191856,1755608596113,11.41,62.23,-105.64,825,891,825,447,815,34.48275862068966,-0.209,0.899,0.399
191886,1755608596143,11.41,62.25,-105.66,833,895,823,360,819,33.333333333333336,-0.21,0.899,0.399
191915,1755608596172,11.41,62.25,-105.67,833,892,821,264,821,34.48275862068966,-0.207,0.897,0.398
191945,1755608596202,11.41,62.23,-105.66,835,894,827,338,817,33.333333333333336,-0.209,0.899,0.396
191975,1755608596232,11.43,62.21,-105.68,835,895,829,410,820,33.333333333333336,-0.21,0.898,0.399
192004,1755608596261,11.46,62.23,-105.7,833,886,828,398,825,34.48275862068966,-0.212,0.898,0.398
192034,1755608596291,11.47,62.21,-105.7,832,888,828,296,821,33.333333333333336,-0.212,0.899,0.397
192064,1755608596320,11.5,62.19,-105.7,830,887,823,324,817,33.333333333333336,-0.209,0.899,0.399
192093,1755608596350,11.52,62.19,-105.74,833,893,829,417,819,34.48275862068966,-0.207,0.898,0.399
192122,1755608596379,11.48,62.18,-105.78,834,891,826,431,816,34.48275862068966,-0.208,0.899,0.399
192152,1755608596409,11.49,62.17,-105.8,834,890,831,334,816,33.333333333333336,-0.212,0.898,0.401
192181,1755608596438,11.51,62.19,-105.78,836,887,827,304,821,34.48275862068966,-0.212,0.898,0.4
192210,1755608596468,11.51,62.19,-105.77,829,891,832,388,820,34.48275862068966,-0.208,0.899,0.398
192240,1755608596498,11.5,62.15,-105.81,834,897,830,446,820,33.333333333333336,-0.206,0.899,0.399
192260,1755608596517,11.5,62.15,-105.84,835,897,827,362,820,50.0,-0.206,0.898,0.402
192290,1755608596547,11.51,62.18,-105.86,827,895,825,420,821,33.333333333333336,-0.21,0.9,0.402
192319,1755608596576,11.52,62.2,-105.87,828,897,833,376,813,34.48275862068966,-0.21,0.9,0.4
192349,1755608596606,11.53,62.2,-105.9,833,893,822,249,822,33.333333333333336,-0.207,0.897,0.399
192378,1755608596635,11.52,62.17,-105.9,831,893,823,292,821,34.48275862068966,-0.209,0.897,0.4
192408,1755608596664,11.52,62.18,-105.9,829,895,831,433,818,33.333333333333336,-0.211,0.899,0.402
192437,1755608596694,11.54,62.19,-105.95,829,898,824,408,825,34.48275862068966,-0.209,0.899,0.401
192466,1755608596723,11.54,62.18,-105.96,833,891,826,288,821,34.48275862068966,-0.21,0.898,0.4
192496,1755608596753,11.54,62.18,-105.96,832,891,823,287,816,33.333333333333336,-0.209,0.897,0.402
192526,1755608596783,11.55,62.18,-105.98,830,895,827,423,817,33.333333333333336,-0.207,0.896,0.401
192555,1755608596812,11.56,62.12,-106.0,834,888,825,410,818,34.48275862068966,-0.208,0.898,0.4
192585,1755608596842,11.56,62.11,-106.0,833,898,827,317,815,33.333333333333336,-0.209,0.898,0.402
192614,1755608596871,11.58,62.11,-106.05,828,896,826,302,819,34.48275862068966,-0.208,0.897,0.401
192644,1755608596901,11.57,62.08,-106.05,833,898,828,404,819,33.333333333333336,-0.21,0.898,0.4
192673,1755608596930,11.57,62.08,-106.04,833,891,826,455,819,34.48275862068966,-0.208,0.899,0.402
192703,1755608596959,11.59,62.13,-106.08,833,899,823,368,817,33.333333333333336,-0.206,0.901,0.402
192732,1755608596989,11.55,62.12,-106.14,828,896,828,260,818,34.48275862068966,-0.203,0.9,0.399
192761,1755608597018,11.54,62.07,-106.23,832,894,827,336,819,34.48275862068966,-0.208,0.901,0.401
192791,1755608597048,11.56,61.98,-106.27,835,896,827,437,823,33.333333333333336,-0.215,0.897,0.406
192820,1755608597077,11.61,61.99,-106.28,828,889,822,408,814,34.48275862068966,-0.215,0.893,0.406
192850,1755608597107,11.62,61.97,-106.29,834,894,828,295,813,33.333333333333336,-0.211,0.895,0.403
192879,1755608597136,11.59,61.93,-106.34,833,892,831,341,819,34.48275862068966,-0.207,0.897,0.402
192909,1755608597165,11.62,61.91,-106.37,832,889,824,424,815,33.333333333333336,-0.212,0.897,0.406
192938,1755608597195,11.62,61.94,-106.35,833,893,821,413,815,34.48275862068966,-0.213,0.895,0.406
192968,1755608597224,11.63,61.91,-106.39,832,898,826,319,818,33.333333333333336,-0.211,0.893,0.402
192997,1755608597254,11.6,61.89,-106.39,835,892,825,283,818,34.48275862068966,-0.21,0.895,0.402
193027,1755608597284,11.61,61.9,-106.4,835,890,829,412,817,33.333333333333336,-0.211,0.898,0.406
193056,1755608597313,11.64,61.91,-106.46,837,889,826,448,821,34.48275862068966,-0.209,0.898,0.404
193086,1755608597343,11.63,61.88,-106.47,835,898,824,328,815,33.333333333333336,-0.21,0.894,0.404
193115,1755608597372,11.64,61.9,-106.46,833,892,831,278,819,34.48275862068966,-0.213,0.897,0.406
193144,1755608597401,11.66,61.94,-106.46,832,892,826,342,817,34.48275862068966,-0.213,0.898,0.405
193174,1755608597432,11.69,61.97,-106.49,832,898,827,451,820,33.333333333333336,-0.211,0.896,0.402
193194,1755608597451,11.71,61.99,-106.49,832,898,831,344,816,50.0,-0.209,0.894,0.401
193223,1755608597480,11.7,61.97,-106.46,830,887,828,445,820,34.48275862068966,-0.209,0.896,0.406
193253,1755608597510,11.72,62.03,-106.5,831,886,825,385,820,33.333333333333336,-0.206,0.897,0.405
193282,1755608597539,11.72,62.06,-106.56,829,892,823,287,818,34.48275862068966,-0.207,0.897,0.4
193312,1755608597569,11.71,62.05,-106.57,830,885,829,347,819,33.333333333333336,-0.211,0.897,0.4
193332,1755608597588,11.71,62.06,-106.54,839,892,821,323,820,50.0,-0.214,0.898,0.402
193361,1755608597618,11.72,62.06,-106.59,833,896,830,368,821,34.48275862068966,-0.21,0.898,0.401
193390,1755608597647,11.71,62.06,-106.63,834,891,826,469,815,34.48275862068966,-0.208,0.897,0.401
193420,1755608597677,11.68,62.02,-106.64,837,894,830,401,820,33.333333333333336,-0.211,0.898,0.402
193449,1755608597706,11.7,62.02,-106.65,833,887,824,297,817,34.48275862068966,-0.21,0.897,0.404
193479,1755608597736,11.71,62.03,-106.68,833,892,830,344,821,33.333333333333336,-0.209,0.896,0.403
193509,1755608597766,11.67,61.99,-106.72,833,892,830,469,822,33.333333333333336,-0.207,0.898,0.401
193538,1755608597795,11.66,61.97,-106.74,834,892,825,427,817,34.48275862068966,-0.209,0.897,0.403
193568,1755608597825,11.69,61.97,-106.76,833,885,830,309,819,33.333333333333336,-0.212,0.897,0.405
193597,1755608597854,11.68,61.98,-106.75,832,897,829,308,821,34.48275862068966,-0.211,0.895,0.402
193627,1755608597883,11.67,61.94,-106.76,831,893,828,420,819,33.333333333333336,-0.21,0.897,0.399
193656,1755608597913,11.68,61.96,-106.74,830,894,828,439,819,34.48275862068966,-0.213,0.898,0.405
193715,1755608597973,11.73,62.0,-106.74,830,890,828,319,815,33.333333333333336,-0.201,0.896,0.403
193735,1755608597992,11.71,62.01,-106.76,832,893,827,397,819,50.0,-0.199,0.898,0.402
193795,1755608598052,11.71,62.04,-106.84,828,894,824,358,820,33.333333333333336,-0.205,0.899,0.405
193824,1755608598081,11.72,62.03,-106.86,829,886,822,448,823,34.48275862068966,-0.207,0.897,0.4
193854,1755608598111,11.72,62.0,-106.88,828,893,820,420,817,33.333333333333336,-0.207,0.896,0.398
193883,1755608598140,11.73,61.97,-106.88,830,898,827,291,820,34.48275862068966,-0.21,0.896,0.403
193913,1755608598170,11.76,61.99,-106.89,829,896,828,334,819,33.333333333333336,-0.209,0.898,0.407
193942,1755608598200,11.78,62.0,-106.92,833,892,828,452,817,34.48275862068966,-0.204,0.897,0.404
194001,1755608598259,11.77,61.99,-106.99,835,886,839,336,820,34.48275862068966,-0.207,0.899,0.404
194031,1755608598288,11.81,61.99,-107.01,837,895,825,313,813,33.333333333333336,-0.213,0.899,0.404
194061,1755608598318,11.81,62.01,-106.98,833,884,827,385,816,33.333333333333336,-0.211,0.896,0.402
194090,1755608598347,11.8,61.98,-106.98,825,892,829,449,818,34.48275862068966,-0.207,0.896,0.4
194120,1755608598377,11.82,61.97,-107.0,836,888,826,403,818,33.333333333333336,-0.208,0.898,0.404
194179,1755608598436,11.81,62.04,-107.01,833,888,822,353,814,33.333333333333336,-0.207,0.897,0.399
194208,1755608598465,11.83,61.95,-107.0,832,894,828,462,821,34.48275862068966,-0.208,0.897,0.399
194238,1755608598495,11.78,61.88,-107.0,835,896,825,427,816,33.333333333333336,-0.211,0.899,0.399
194267,1755608598524,11.79,61.86,-106.89,832,891,828,305,820,34.48275862068966,-0.214,0.896,0.403
194297,1755608598554,11.79,61.81,-106.85,832,889,824,317,819,33.333333333333336,-0.208,0.896,0.402
194326,1755608598583,11.79,61.79,-106.86,833,889,826,411,819,34.48275862068966,-0.204,0.899,0.401
194356,1755608598613,11.79,61.73,-106.94,838,893,825,426,817,33.333333333333336,-0.205,0.901,0.403
194386,1755608598643,11.79,61.64,-106.92,840,891,830,368,819,33.333333333333336,-0.205,0.897,0.405
194415,1755608598672,11.8,61.66,-106.93,839,895,828,294,822,34.48275862068966,-0.2,0.897,0.405
194445,1755608598702,11.8,61.57,-107.0,841,892,828,355,820,33.333333333333336,-0.2,0.899,0.405
194474,1755608598731,11.83,61.5,-107.08,834,897,829,462,824,34.48275862068966,-0.205,0.896,0.409
194504,1755608598761,11.87,61.5,-107.1,837,901,825,410,821,33.333333333333336,-0.206,0.895,0.409
194533,1755608598790,11.89,61.48,-107.16,842,897,828,308,819,34.48275862068966,-0.205,0.899,0.407
194563,1755608598820,11.93,61.43,-107.24,839,892,828,343,817,33.333333333333336,-0.206,0.898,0.408
194592,1755608598849,11.98,61.41,-107.32,840,895,827,442,815,34.48275862068966,-0.211,0.895,0.411
194622,1755608598879,12.03,61.4,-107.34,840,883,830,435,820,33.333333333333336,-0.21,0.895,0.408
194651,1755608598908,12.01,61.35,-107.37,840,886,827,325,817,34.48275862068966,-0.206,0.895,0.408
194681,1755608598938,11.99,61.39,-107.39,839,899,828,305,823,33.333333333333336,-0.206,0.895,0.413
194710,1755608598967,12.04,61.44,-107.47,837,894,824,392,825,34.48275862068966,-0.212,0.896,0.415
194739,1755608598997,12.07,61.5,-107.45,838,899,830,433,825,34.48275862068966,-0.214,0.893,0.412
194769,1755608599026,12.07,61.53,-107.41,840,895,826,344,823,33.333333333333336,-0.21,0.891,0.41
194799,1755608599056,12.07,61.5,-107.45,841,884,821,285,824,33.333333333333336,-0.211,0.893,0.411
194828,1755608599085,12.05,61.52,-107.43,840,894,826,345,821,34.48275862068966,-0.211,0.895,0.414
194858,1755608599115,12.06,61.6,-107.46,838,892,826,445,825,33.333333333333336,-0.208,0.895,0.412
194887,1755608599145,12.06,61.61,-107.5,841,891,835,407,818,34.48275862068966,-0.206,0.893,0.41
194917,1755608599174,12.02,61.62,-107.52,838,897,827,302,821,33.333333333333336,-0.207,0.893,0.41
194947,1755608599203,12.01,61.67,-107.55,832,889,829,316,816,33.333333333333336,-0.21,0.894,0.411
194976,1755608599233,12.01,61.68,-107.55,836,887,826,429,821,34.48275862068966,-0.213,0.895,0.408
195005,1755608599262,12.01,61.65,-107.57,832,886,828,438,816,34.48275862068966,-0.209,0.893,0.406
195035,1755608599292,12.0,61.66,-107.6,836,896,831,348,823,33.333333333333336,-0.209,0.895,0.408
195064,1755608599322,11.98,61.63,-107.62,836,897,826,324,821,34.48275862068966,-0.204,0.894,0.411
195094,1755608599351,11.98,61.64,-107.64,837,886,827,369,816,33.333333333333336,-0.203,0.892,0.409
195124,1755608599380,11.96,61.62,-107.68,839,895,823,439,821,33.333333333333336,-0.204,0.891,0.408
195153,1755608599410,11.94,61.6,-107.7,834,894,825,398,822,34.48275862068966,-0.208,0.894,0.41
195182,1755608599439,11.93,61.59,-107.73,831,885,825,292,819,34.48275862068966,-0.208,0.894,0.407
195212,1755608599469,11.92,61.56,-107.77,839,890,827,332,816,33.333333333333336,-0.207,0.892,0.407
195241,1755608599498,11.91,61.54,-107.8,837,897,823,431,817,34.48275862068966,-0.209,0.893,0.41
195270,1755608599527,11.91,61.55,-107.8,838,896,830,423,817,34.48275862068966,-0.211,0.894,0.412
195300,1755608599557,11.93,61.56,-107.82,831,898,823,309,821,33.333333333333336,-0.21,0.894,0.408
195329,1755608599587,11.91,61.52,-107.84,838,892,828,320,816,34.48275862068966,-0.21,0.894,0.407
195359,1755608599616,11.9,61.5,-107.86,835,892,825,433,819,33.333333333333336,-0.21,0.893,0.41
195388,1755608599645,11.89,61.51,-107.88,838,891,822,446,822,34.48275862068966,-0.211,0.895,0.412
195418,1755608599675,11.9,61.53,-107.9,837,894,837,335,815,33.333333333333336,-0.21,0.895,0.411
195447,1755608599704,11.88,61.52,-107.96,837,892,822,302,824,34.48275862068966,-0.208,0.893,0.408
195477,1755608599734,11.86,61.52,-107.96,833,892,828,406,817,33.333333333333336,-0.21,0.894,0.409
195506,1755608599763,11.87,61.51,-107.99,837,892,825,447,820,34.48275862068966,-0.212,0.894,0.411
195536,1755608599793,11.88,61.5,-108.01,839,897,826,376,819,33.333333333333336,-0.211,0.893,0.41
195565,1755608599822,11.88,61.48,-108.0,834,895,823,290,818,34.48275862068966,-0.211,0.893,0.409
195595,1755608599852,11.88,61.49,-108.02,837,891,821,353,821,33.333333333333336,-0.21,0.895,0.408
195624,1755608599881,11.86,61.44,-108.07,840,893,827,457,819,34.48275862068966,-0.21,0.892,0.411
195654,1755608599910,11.9,61.42,-108.1,835,897,826,413,816,33.333333333333336,-0.213,0.892,0.414
195683,1755608599940,11.96,61.41,-108.13,837,893,823,298,817,34.48275862068966,-0.213,0.894,0.413
195712,1755608599970,11.98,61.4,-108.17,839,894,825,339,821,34.48275862068966,-0.211,0.894,0.409
195742,1755608600000,11.99,61.37,-108.18,836,893,829,445,826,33.333333333333336,-0.211,0.892,0.411
195772,1755608600029,12.01,61.35,-108.2,838,892,824,432,825,33.333333333333336,-0.213,0.893,0.411
195801,1755608600058,12.03,61.32,-108.23,830,900,829,346,822,34.48275862068966,-0.212,0.891,0.411
195831,1755608600088,12.01,61.34,-108.23,837,893,823,312,814,33.333333333333336,-0.209,0.894,0.41
195860,1755608600117,11.96,61.31,-108.29,836,896,824,380,819,34.48275862068966,-0.208,0.895,0.409
195890,1755608600147,11.95,61.27,-108.36,838,893,821,443,820,33.333333333333336,-0.211,0.891,0.412
195919,1755608600176,11.97,61.27,-108.35,835,896,830,381,819,34.48275862068966,-0.216,0.891,0.414
195949,1755608600206,11.95,61.28,-108.37,836,895,825,301,822,33.333333333333336,-0.213,0.892,0.412
195978,1755608600235,11.93,61.29,-108.39,834,892,827,339,819,34.48275862068966,-0.211,0.891,0.411
196008,1755608600265,11.94,61.29,-108.39,838,891,826,459,817,33.333333333333336,-0.216,0.893,0.414
196038,1755608600294,11.93,61.26,-108.37,838,894,825,419,817,33.333333333333336,-0.217,0.891,0.413
196067,1755608600324,11.91,61.26,-108.33,836,896,830,302,816,34.48275862068966,-0.211,0.892,0.413
196126,1755608600383,11.84,61.24,-108.4,835,897,826,391,819,33.333333333333336,-0.211,0.895,0.414
196155,1755608600412,11.85,61.27,-108.4,835,899,825,424,823,34.48275862068966,-0.215,0.894,0.415
196185,1755608600442,11.86,61.26,-108.43,834,890,830,344,824,33.333333333333336,-0.211,0.891,0.412
196214,1755608600472,11.83,61.22,-108.43,836,892,828,313,820,34.48275862068966,-0.211,0.891,0.412
196244,1755608600501,11.75,61.24,-108.43,838,894,831,356,826,33.333333333333336,-0.211,0.892,0.414
196274,1755608600531,11.62,61.31,-108.45,835,895,825,458,822,33.333333333333336,-0.213,0.893,0.415
196303,1755608600560,11.52,61.26,-108.5,833,898,827,405,817,34.48275862068966,-0.209,0.892,0.412
196333,1755608600590,11.55,61.23,-108.53,837,897,826,292,817,33.333333333333336,-0.213,0.893,0.415
196362,1755608600619,11.55,61.19,-108.55,830,895,827,340,819,34.48275862068966,-0.213,0.893,0.414
196391,1755608600648,11.51,61.22,-108.59,836,889,826,468,822,34.48275862068966,-0.21,0.891,0.416
196421,1755608600678,11.46,61.35,-108.63,835,893,832,431,821,33.333333333333336,-0.209,0.895,0.417
196451,1755608600708,11.43,61.35,-108.72,835,895,824,333,819,33.333333333333336,-0.205,0.893,0.416
196480,1755608600737,11.42,61.27,-108.83,835,895,826,326,818,34.48275862068966,-0.208,0.894,0.41
196509,1755608600767,11.36,61.19,-108.86,834,892,827,381,818,34.48275862068966,-0.211,0.888,0.413
196539,1755608600796,11.29,61.3,-108.83,832,890,825,413,817,33.333333333333336,-0.214,0.893,0.417
196569,1755608600826,11.34,61.41,-108.92,835,896,821,366,815,33.333333333333336,-0.214,0.895,0.411
196599,1755608600856,11.34,61.36,-108.91,832,894,822,302,820,33.333333333333336,-0.209,0.891,0.408
196629,1755608600885,11.35,61.32,-108.88,836,888,831,345,816,33.333333333333336,-0.21,0.891,0.41
196658,1755608600915,11.38,61.34,-108.94,830,895,827,453,819,34.48275862068966,-0.212,0.893,0.412
