timestamp_ms,recv_timestamp_ms,pitch,roll,yaw,flex1,flex2,flex3,flex4,flex5,sampling_hz,accel_x,accel_y,accel_z
157452,1755603710746,18.07,-40.21,-24.63,773,865,775,233,858,34.48275862068966,-0.319,-0.627,0.728
157482,1755603710748,17.72,-40.04,-24.57,769,877,776,355,857,33.333333333333336,-0.316,-0.625,0.728
157512,1755603710750,17.35,-39.83,-24.63,770,877,774,419,864,33.333333333333336,-0.312,-0.623,0.732
157541,1755603710752,17.02,-39.66,-24.7,773,876,776,379,872,34.48275862068966,-0.304,-0.614,0.729
157571,1755603710754,16.94,-39.68,-24.84,765,878,772,325,880,33.333333333333336,-0.298,-0.61,0.732
157601,1755603710756,16.95,-39.48,-24.94,773,892,773,369,878,33.333333333333336,-0.299,-0.61,0.74
158508,1755603710821,23.97,-35.34,-20.91,772,911,781,407,889,34.48275862068966,-0.436,-0.509,0.74
158914,1755603710850,24.54,-36.12,-21.01,775,911,773,444,892,34.48275862068966,-0.436,-0.528,0.733
159181,1755603710868,25.13,-36.58,-20.92,771,912,778,453,893,33.333333333333336,-0.441,-0.539,0.731
159388,1755603710882,25.9,-36.1,-21.08,775,911,776,297,897,34.48275862068966,-0.443,-0.533,0.724
159506,1755603710891,25.8,-36.42,-21.85,771,910,778,322,892,34.48275862068966,-0.436,-0.535,0.712
159536,1755603710893,25.79,-36.5,-21.94,774,903,776,329,884,33.333333333333336,-0.441,-0.541,0.713
159565,1755603710896,25.75,-36.69,-22.01,772,899,777,416,889,34.48275862068966,-0.451,-0.547,0.715
159615,1755603710899,25.68,-36.86,-22.01,771,906,776,408,891,34.48275862068966,-0.453,-0.548,0.71
159644,1755603710902,25.6,-37.06,-22.04,773,895,776,432,895,34.48275862068966,-0.447,-0.547,0.705
159674,1755603710904,25.44,-37.52,-22.19,775,906,772,359,882,33.333333333333336,-0.444,-0.547,0.702
159704,1755603710905,25.33,-37.6,-22.17,767,904,776,322,891,33.333333333333336,-0.44,-0.551,0.707
159734,1755603710907,25.31,-37.67,-22.16,768,906,784,368,896,33.333333333333336,-0.439,-0.556,0.714
159763,1755603710910,25.36,-37.67,-22.12,774,904,776,443,897,34.48275862068966,-0.437,-0.559,0.719
159822,1755603710913,25.5,-37.58,-22.02,774,904,779,288,884,34.48275862068966,-0.43,-0.556,0.713
159852,1755603710916,25.53,-37.55,-22.0,771,909,778,322,890,33.333333333333336,-0.43,-0.555,0.711
159882,1755603710918,25.59,-37.47,-21.97,766,902,769,415,886,33.333333333333336,-0.432,-0.556,0.71
159911,1755603710920,25.64,-37.45,-21.95,769,907,774,438,889,34.48275862068966,-0.435,-0.557,0.711
159941,1755603710921,25.67,-37.36,-21.9,769,912,769,377,888,33.333333333333336,-0.434,-0.557,0.713
159970,1755603710924,25.77,-37.29,-21.85,770,903,778,313,890,34.48275862068966,-0.434,-0.558,0.713
160000,1755603710927,25.88,-37.21,-21.83,772,908,781,383,890,33.333333333333336,-0.435,-0.557,0.715
160029,1755603710928,25.94,-37.07,-21.78,765,903,771,444,882,34.48275862068966,-0.432,-0.554,0.713
160059,1755603710930,25.99,-36.98,-21.76,774,905,772,360,882,33.333333333333336,-0.429,-0.552,0.713
160088,1755603710932,26.03,-36.99,-21.79,773,892,780,291,875,34.48275862068966,-0.43,-0.55,0.713
160118,1755603710935,26.07,-36.93,-21.82,773,902,776,318,888,33.333333333333336,-0.432,-0.549,0.713
160147,1755603710937,26.06,-36.99,-21.88,777,900,780,443,887,34.48275862068966,-0.436,-0.55,0.713
160176,1755603710939,26.09,-36.91,-21.83,773,906,779,426,893,34.48275862068966,-0.439,-0.55,0.714
160206,1755603710940,26.16,-36.9,-21.77,768,902,773,303,887,33.333333333333336,-0.441,-0.55,0.714
160236,1755603710942,26.14,-36.94,-21.76,772,907,777,299,889,33.333333333333336,-0.44,-0.548,0.712
160266,1755603710944,26.12,-36.93,-21.75,775,904,779,390,882,33.333333333333336,-0.437,-0.544,0.708
160295,1755603710946,26.06,-37.01,-21.81,769,904,776,431,889,34.48275862068966,-0.438,-0.543,0.708
160325,1755603710948,25.99,-37.1,-21.89,776,901,783,380,882,33.333333333333336,-0.438,-0.544,0.71
160355,1755603710950,25.98,-37.09,-21.92,773,895,783,291,883,33.333333333333336,-0.44,-0.545,0.715
160384,1755603710952,26.01,-37.14,-21.94,774,904,774,338,893,34.48275862068966,-0.439,-0.546,0.719
160444,1755603710956,26.07,-37.15,-22.03,770,900,779,421,888,33.333333333333336,-0.433,-0.543,0.716
160473,1755603710958,26.12,-37.17,-22.11,771,906,776,336,893,34.48275862068966,-0.433,-0.543,0.716
160503,1755603710960,26.14,-37.18,-22.22,770,900,776,300,883,33.333333333333336,-0.434,-0.544,0.714
160533,1755603710962,26.17,-37.19,-22.31,773,905,775,371,884,33.333333333333336,-0.437,-0.548,0.716
160562,1755603710964,26.24,-37.11,-22.34,771,894,774,448,891,34.48275862068966,-0.438,-0.551,0.717
160622,1755603710968,26.31,-37.05,-22.43,773,893,776,310,885,33.333333333333336,-0.437,-0.552,0.713
160652,1755603710970,26.31,-37.02,-22.47,769,896,779,344,887,33.333333333333336,-0.436,-0.552,0.711
160681,1755603710973,26.3,-37.05,-22.51,769,900,780,434,886,34.48275862068966,-0.437,-0.552,0.709
160702,1755603710975,26.31,-37.04,-22.53,772,905,776,311,887,47.61904761904762,-0.439,-0.552,0.71
160731,1755603710977,26.29,-37.05,-22.55,770,901,780,430,888,34.48275862068966,-0.44,-0.552,0.711
160761,1755603710980,26.27,-37.11,-22.59,771,906,782,441,894,33.333333333333336,-0.439,-0.552,0.712
160790,1755603710982,26.29,-37.09,-22.6,770,899,780,343,889,34.48275862068966,-0.437,-0.552,0.712
160820,1755603710984,26.33,-37.09,-22.6,771,903,774,322,883,33.333333333333336,-0.437,-0.552,0.712
160850,1755603710986,26.27,-37.14,-22.63,768,898,773,376,880,33.333333333333336,-0.437,-0.551,0.712
160879,1755603710988,26.25,-37.16,-22.65,768,900,774,452,894,34.48275862068966,-0.437,-0.551,0.712
160909,1755603710990,26.25,-37.18,-22.67,766,905,780,416,888,33.333333333333336,-0.439,-0.552,0.713
160939,1755603710992,26.22,-37.21,-22.69,771,887,778,316,884,33.333333333333336,-0.439,-0.552,0.712
160968,1755603710994,26.18,-37.22,-22.68,771,898,777,330,882,34.48275862068966,-0.437,-0.553,0.713
161028,1755603710997,26.13,-37.2,-22.65,774,901,781,440,885,33.333333333333336,-0.435,-0.555,0.714
161058,1755603711000,26.1,-37.24,-22.66,774,903,777,359,883,33.333333333333336,-0.434,-0.556,0.712
161087,1755603711002,26.08,-37.23,-22.63,775,889,773,289,884,34.48275862068966,-0.435,-0.557,0.713
161107,1755603711004,26.08,-37.2,-22.6,771,904,777,399,878,50.0,-0.435,-0.557,0.714
161137,1755603711006,26.05,-37.24,-22.57,770,898,772,343,884,33.333333333333336,-0.433,-0.557,0.714
161166,1755603711008,26.03,-37.29,-22.54,767,901,777,383,887,34.48275862068966,-0.432,-0.557,0.714
161196,1755603711009,26.03,-37.3,-22.5,776,902,779,459,884,33.333333333333336,-0.433,-0.557,0.715
161225,1755603711011,26.02,-37.31,-22.46,771,892,777,419,880,34.48275862068966,-0.433,-0.554,0.715
161255,1755603711013,25.99,-37.36,-22.45,770,899,784,324,877,33.333333333333336,-0.431,-0.552,0.716
161284,1755603711015,25.96,-37.38,-22.44,776,896,777,350,883,34.48275862068966,-0.431,-0.55,0.719
161314,1755603711017,25.96,-37.33,-22.44,769,890,777,444,892,33.333333333333336,-0.431,-0.549,0.721
161335,1755603711020,25.96,-37.33,-22.44,766,903,776,288,885,47.61904761904762,-0.428,-0.548,0.722
161394,1755603711024,25.96,-37.29,-22.49,772,898,785,430,891,33.333333333333336,-0.427,-0.547,0.72
161423,1755603711026,25.98,-37.26,-22.53,771,898,775,332,892,34.48275862068966,-0.428,-0.547,0.72
161443,1755603711027,25.95,-37.28,-22.57,772,902,778,427,882,50.0,-0.429,-0.547,0.719
161473,1755603711030,25.98,-37.25,-22.6,770,899,776,346,883,33.333333333333336,-0.429,-0.548,0.718
161503,1755603711032,26.01,-37.22,-22.62,771,898,778,314,891,33.333333333333336,-0.431,-0.549,0.718
161533,1755603711034,26.02,-37.2,-22.65,773,897,778,396,884,33.333333333333336,-0.431,-0.549,0.715
161562,1755603711035,25.99,-37.23,-22.71,766,904,777,433,880,34.48275862068966,-0.431,-0.549,0.713
161592,1755603711037,25.93,-37.28,-22.77,770,906,768,390,891,33.333333333333336,-0.431,-0.55,0.712
161651,1755603711041,25.84,-37.38,-22.85,777,907,776,346,888,33.333333333333336,-0.431,-0.553,0.712
161681,1755603711044,25.82,-37.41,-22.88,774,897,778,447,886,33.333333333333336,-0.43,-0.554,0.712
161710,1755603711046,25.76,-37.47,-22.92,772,905,776,398,884,34.48275862068966,-0.43,-0.554,0.712
161740,1755603711048,25.75,-37.46,-22.93,768,905,776,332,888,33.333333333333336,-0.428,-0.553,0.713
161769,1755603711049,25.77,-37.44,-22.95,768,902,774,318,881,34.48275862068966,-0.427,-0.553,0.715
161828,1755603711053,25.81,-37.48,-23.01,769,900,780,426,885,34.48275862068966,-0.425,-0.555,0.715
161858,1755603711055,25.84,-37.47,-23.05,770,901,780,403,882,33.333333333333336,-0.425,-0.555,0.714
161888,1755603711057,25.84,-37.5,-23.1,773,902,779,309,884,33.333333333333336,-0.426,-0.556,0.712
161917,1755603711059,25.86,-37.52,-23.13,774,901,775,341,885,34.48275862068966,-0.426,-0.558,0.712
161947,1755603711062,25.88,-37.5,-23.12,777,906,780,454,883,33.333333333333336,-0.427,-0.56,0.713
161977,1755603711063,25.94,-37.48,-23.11,771,894,773,444,885,33.333333333333336,-0.428,-0.559,0.713
162006,1755603711066,26.0,-37.41,-23.1,768,903,775,336,888,34.48275862068966,-0.426,-0.558,0.713
162036,1755603711068,25.97,-37.47,-23.13,774,907,778,325,885,33.333333333333336,-0.424,-0.558,0.711
162066,1755603711069,25.99,-37.5,-23.16,778,905,773,385,883,33.333333333333336,-0.425,-0.559,0.709
162096,1755603711072,25.99,-37.46,-23.14,775,900,780,426,871,33.333333333333336,-0.427,-0.559,0.711
162125,1755603711074,25.96,-37.52,-23.16,776,900,769,404,874,34.48275862068966,-0.427,-0.558,0.71
162155,1755603711076,25.92,-37.56,-23.16,770,901,775,300,886,33.333333333333336,-0.429,-0.558,0.711
162184,1755603711078,25.87,-37.55,-23.14,778,901,774,343,896,34.48275862068966,-0.427,-0.556,0.713
162214,1755603711080,25.89,-37.54,-23.13,773,905,773,429,883,33.333333333333336,-0.426,-0.556,0.715
162244,1755603711081,25.87,-37.54,-23.13,766,903,777,414,888,33.333333333333336,-0.426,-0.556,0.716
162265,1755603711083,25.85,-37.51,-23.13,768,902,773,351,885,47.61904761904762,-0.425,-0.557,0.715
162294,1755603711086,25.85,-37.52,-23.13,768,887,781,390,881,34.48275862068966,-0.424,-0.557,0.714
162324,1755603711088,25.81,-37.46,-23.11,776,902,781,323,885,33.333333333333336,-0.424,-0.557,0.714
162353,1755603711090,25.82,-37.47,-23.11,770,904,777,283,879,34.48275862068966,-0.426,-0.559,0.714
162383,1755603711091,25.79,-37.47,-23.11,774,896,773,351,882,33.333333333333336,-0.426,-0.559,0.713
162413,1755603711094,25.74,-37.45,-23.11,769,896,772,445,883,33.333333333333336,-0.426,-0.558,0.713
162442,1755603711096,25.69,-37.45,-23.13,768,903,781,414,885,34.48275862068966,-0.425,-0.558,0.715
