timestamp_ms,recv_timestamp_ms,pitch,roll,yaw,flex1,flex2,flex3,flex4,flex5,sampling_hz,accel_x,accel_y,accel_z
1970-01-01 00:00:00.000186010,1755597978117,25.18,-43.1,6.46,766.0,763.0,848.0,921.0,899.0,34.48275862068966,-0.429,-0.622,0.654
1970-01-01 00:00:00.000186040,1755597978119,25.25,-43.13,6.5,,,,,,33.333333333333336,-0.429,-0.621,0.651
1970-01-01 00:00:00.000186060,1755597978121,25.26,-43.16,6.5,,,,,,50.0,-0.426,-0.619,0.65
1970-01-01 00:00:00.000186090,1755597978123,25.2,-43.22,6.43,,,,,,33.333333333333336,-0.424,-0.619,0.649
1970-01-01 00:00:00.000186119,1755597978125,25.19,-43.28,6.37,,,,,,34.48275862068966,-0.426,-0.624,0.652
1970-01-01 00:00:00.000186149,1755597978127,25.24,-43.27,6.39,,,,,,33.333333333333336,-0.427,-0.628,0.655
1970-01-01 00:00:00.000186178,1755597978129,25.28,-43.22,6.41,,,,,,34.48275862068966,-0.424,-0.628,0.654
1970-01-01 00:00:00.000186208,1755597978133,25.27,-43.2,6.36,,,,,,33.333333333333336,-0.422,-0.629,0.652
1970-01-01 00:00:00.000186237,1755597978136,25.29,-43.19,6.32,,,,,,34.48275862068966,-0.425,-0.63,0.65
1970-01-01 00:00:00.000186267,1755597978138,25.28,-43.18,6.33,,,,,,33.333333333333336,-0.429,-0.623,0.647
1970-01-01 00:00:00.000186296,1755597978141,25.22,-43.27,6.31,,,,,,34.48275862068966,-0.43,-0.617,0.65
1970-01-01 00:00:00.000186326,1755597978144,25.2,-43.33,6.29,,,,,,33.333333333333336,-0.429,-0.621,0.656
1970-01-01 00:00:00.000186355,1755597978147,25.2,-43.32,6.29,,,,,,34.48275862068966,-0.426,-0.627,0.658
1970-01-01 00:00:00.000186385,1755597978149,25.23,-43.3,6.33,,,,,,33.333333333333336,-0.422,-0.63,0.654
1970-01-01 00:00:00.000186415,1755597978151,25.22,-43.32,6.34,,,,,,33.333333333333336,-0.421,-0.631,0.652
1970-01-01 00:00:00.000186444,1755597978154,25.15,-43.32,6.33,,,,,,34.48275862068966,-0.422,-0.63,0.653
1970-01-01 00:00:00.000186474,1755597978155,25.16,-43.32,6.35,,,,,,33.333333333333336,-0.423,-0.628,0.656
1970-01-01 00:00:00.000186503,1755597978157,25.2,-43.3,6.37,,,,,,34.48275862068966,-0.424,-0.626,0.655
1970-01-01 00:00:00.000186533,1755597978159,25.18,-43.32,6.37,,,,,,33.333333333333336,-0.426,-0.625,0.653
1970-01-01 00:00:00.000186562,1755597978161,25.11,-43.35,6.37,,,,,,34.48275862068966,-0.425,-0.622,0.65
1970-01-01 00:00:00.000186592,1755597978164,25.09,-43.42,6.39,,,,,,33.333333333333336,-0.424,-0.622,0.652
1970-01-01 00:00:00.000186621,1755597978166,25.12,-43.44,6.42,,,,,,34.48275862068966,-0.423,-0.626,0.657
1970-01-01 00:00:00.000186651,1755597978169,25.11,-43.43,6.43,,,,,,33.333333333333336,-0.422,-0.627,0.655
1970-01-01 00:00:00.000186681,1755597978170,25.07,-43.45,6.42,,,,,,33.333333333333336,-0.424,-0.626,0.653
1970-01-01 00:00:00.000186710,1755597978173,25.09,-43.49,6.43,,,,,,34.48275862068966,-0.425,-0.624,0.653
1970-01-01 00:00:00.000186739,1755597978175,25.08,-43.52,6.41,,,,,,34.48275862068966,-0.425,-0.625,0.654
1970-01-01 00:00:00.000186769,1755597978177,25.03,-43.54,6.37,,,,,,33.333333333333336,-0.427,-0.631,0.654
1970-01-01 00:00:00.000186798,1755597978179,25.08,-43.55,6.41,,,,,,34.48275862068966,-0.426,-0.634,0.652
1970-01-01 00:00:00.000186828,1755597978181,25.13,-43.53,6.45,,,,,,33.333333333333336,-0.419,-0.631,0.653
1970-01-01 00:00:00.000186858,1755597978182,25.07,-43.51,6.38,,,,,,33.333333333333336,-0.417,-0.627,0.654
1970-01-01 00:00:00.000186887,1755597978185,25.07,-43.54,6.34,,,,,,34.48275862068966,-0.423,-0.627,0.653
1970-01-01 00:00:00.000186917,1755597978188,25.12,-43.53,6.39,,,,,,33.333333333333336,-0.427,-0.631,0.652
1970-01-01 00:00:00.000186946,1755597978190,25.15,-43.55,6.46,,,,,,34.48275862068966,-0.426,-0.631,0.651
1970-01-01 00:00:00.000186976,1755597978192,25.13,-43.54,6.46,,,,,,33.333333333333336,-0.419,-0.63,0.654
1970-01-01 00:00:00.000187005,1755597978193,25.15,-43.54,6.41,,,,,,34.48275862068966,-0.418,-0.63,0.652
1970-01-01 00:00:00.000187035,1755597978195,25.13,-43.54,6.4,,,,,,33.333333333333336,-0.426,-0.629,0.648
1970-01-01 00:00:00.000187064,1755597978197,25.16,-43.63,6.44,,,,,,34.48275862068966,-0.43,-0.627,0.645
1970-01-01 00:00:00.000187094,1755597978199,25.15,-43.74,6.47,,,,,,33.333333333333336,-0.431,-0.627,0.647
1970-01-01 00:00:00.000187123,1755597978206,25.12,-43.83,6.46,,,,,,34.48275862068966,-0.426,-0.628,0.651
1970-01-01 00:00:00.000187143,1755597978226,25.1,-43.87,6.45,,,,,,50.0,-0.418,-0.628,0.655
1970-01-01 00:00:00.000187173,1755597978255,25.08,-43.87,6.38,,,,,,33.333333333333336,-0.417,-0.63,0.656
1970-01-01 00:00:00.000187202,1755597978285,25.07,-43.86,6.33,,,,,,34.48275862068966,-0.421,-0.633,0.653
1970-01-01 00:00:00.000187232,1755597978315,25.07,-43.87,6.32,,,,,,33.333333333333336,-0.424,-0.631,0.649
1970-01-01 00:00:00.000187262,1755597978344,25.05,-43.92,6.31,,,,,,33.333333333333336,-0.426,-0.63,0.647
1970-01-01 00:00:00.000187291,1755597978373,25.02,-43.96,6.3,,,,,,34.48275862068966,-0.425,-0.632,0.65
1970-01-01 00:00:00.000187320,1755597978403,25.04,-43.93,6.32,,,,,,34.48275862068966,-0.422,-0.635,0.653
1970-01-01 00:00:00.000187350,1755597978432,25.07,-43.93,6.32,,,,,,33.333333333333336,-0.42,-0.634,0.651
1970-01-01 00:00:00.000187379,1755597978462,25.04,-43.91,6.3,,,,,,34.48275862068966,-0.42,-0.635,0.651
1970-01-01 00:00:00.000187438,1755597978521,25.05,-43.87,6.31,,,,,,34.48275862068966,-0.422,-0.634,0.65
1970-01-01 00:00:00.000187468,1755597978550,25.06,-43.86,6.32,,,,,,33.333333333333336,-0.421,-0.633,0.65
1970-01-01 00:00:00.000187497,1755597978581,25.03,-43.84,6.3,,,,,,34.48275862068966,-0.42,-0.634,0.652
1970-01-01 00:00:00.000187518,1755597978600,25.02,-43.83,6.29,,,,,,47.61904761904762,-0.419,-0.635,0.652
1970-01-01 00:00:00.000187547,1755597978630,25.05,-43.84,6.29,,,,,,34.48275862068966,-0.418,-0.635,0.653
1970-01-01 00:00:00.000187576,1755597978659,25.1,-43.82,6.26,,,,,,34.48275862068966,-0.421,-0.627,0.651
1970-01-01 00:00:00.000187606,1755597978689,25.12,-43.82,6.24,,,,,,33.333333333333336,-0.423,-0.629,0.649
1970-01-01 00:00:00.000187636,1755597978718,25.12,-43.84,6.27,,,,,,33.333333333333336,-0.424,-0.631,0.648
1970-01-01 00:00:00.000187665,1755597978748,25.11,-43.86,6.3,,,,,,34.48275862068966,-0.42,-0.632,0.65
1970-01-01 00:00:00.000187695,1755597978777,25.1,-43.82,6.31,,,,,,33.333333333333336,-0.419,-0.633,0.652
1970-01-01 00:00:00.000187724,1755597978807,25.08,-43.77,6.31,,,,,,34.48275862068966,-0.42,-0.632,0.65
1970-01-01 00:00:00.000187754,1755597978836,25.04,-43.8,6.31,,,,,,33.333333333333336,-0.423,-0.631,0.648
1970-01-01 00:00:00.000187783,1755597978866,25.02,-43.84,6.32,,,,,,34.48275862068966,-0.425,-0.632,0.648
1970-01-01 00:00:00.000187813,1755597978895,25.05,-43.85,6.36,,,,,,33.333333333333336,-0.423,-0.635,0.651
1970-01-01 00:00:00.000187842,1755597978925,25.04,-43.83,6.39,,,,,,34.48275862068966,-0.42,-0.634,0.652
1970-01-01 00:00:00.000187872,1755597978954,25.0,-43.8,6.38,,,,,,33.333333333333336,-0.419,-0.634,0.652
1970-01-01 00:00:00.000187901,1755597978983,24.99,-43.8,6.38,,,,,,34.48275862068966,-0.419,-0.634,0.652
1970-01-01 00:00:00.000187931,1755597979013,25.0,-43.79,6.38,,,,,,33.333333333333336,-0.421,-0.635,0.651
1970-01-01 00:00:00.000187960,1755597979043,25.03,-43.79,6.41,,,,,,34.48275862068966,-0.422,-0.634,0.649
1970-01-01 00:00:00.000187990,1755597979072,24.99,-43.79,6.42,,,,,,33.333333333333336,-0.422,-0.634,0.649
1970-01-01 00:00:00.000188019,1755597979101,24.99,-43.81,6.43,,,,,,34.48275862068966,-0.421,-0.633,0.651
1970-01-01 00:00:00.000188049,1755597979131,24.99,-43.8,6.44,,,,,,33.333333333333336,-0.42,-0.633,0.651
1970-01-01 00:00:00.000188078,1755597979160,24.95,-43.77,6.44,,,,,,34.48275862068966,-0.417,-0.634,0.65
1970-01-01 00:00:00.000188107,1755597979190,24.95,-43.75,6.47,,,,,,34.48275862068966,-0.417,-0.633,0.648
1970-01-01 00:00:00.000188137,1755597979219,24.96,-43.74,6.48,,,,,,33.333333333333336,-0.416,-0.631,0.648
1970-01-01 00:00:00.000188166,1755597979249,24.92,-43.77,6.46,,,,,,34.48275862068966,-0.418,-0.632,0.65
1970-01-01 00:00:00.000188196,1755597979279,24.93,-43.77,6.48,,,,,,33.333333333333336,-0.418,-0.635,0.651
1970-01-01 00:00:00.000188226,1755597979308,24.98,-43.76,6.52,,,,,,33.333333333333336,-0.417,-0.635,0.65
1970-01-01 00:00:00.000188255,1755597979337,24.95,-43.77,6.5,,,,,,34.48275862068966,-0.415,-0.634,0.649
1970-01-01 00:00:00.000188285,1755597979367,24.91,-43.8,6.47,,,,,,33.333333333333336,-0.416,-0.635,0.649
1970-01-01 00:00:00.000188314,1755597979396,24.96,-43.81,6.48,,,,,,34.48275862068966,-0.416,-0.635,0.651
1970-01-01 00:00:00.000188344,1755597979426,24.97,-43.81,6.47,,,,,,33.333333333333336,-0.417,-0.636,0.653
1970-01-01 00:00:00.000188373,1755597979455,24.91,-43.75,6.45,,,,,,34.48275862068966,-0.417,-0.638,0.653
1970-01-01 00:00:00.000188402,1755597979485,24.94,-43.71,6.49,,,,,,34.48275862068966,-0.418,-0.636,0.651
1970-01-01 00:00:00.000188432,1755597979514,24.98,-43.72,6.49,,,,,,33.333333333333336,-0.419,-0.63,0.648
1970-01-01 00:00:00.000188461,1755597979544,24.89,-43.75,6.44,,,,,,34.48275862068966,-0.422,-0.632,0.649
1970-01-01 00:00:00.000188491,1755597979573,24.91,-43.74,6.47,,,,,,33.333333333333336,-0.423,-0.635,0.652
1970-01-01 00:00:00.000188520,1755597979603,24.98,-43.73,6.53,,,,,,34.48275862068966,-0.42,-0.633,0.651
1970-01-01 00:00:00.000188550,1755597979633,24.95,-43.74,6.52,,,,,,33.333333333333336,-0.418,-0.631,0.65
1970-01-01 00:00:00.000188570,1755597979652,24.9,-43.74,6.49,,,,,,50.0,-0.419,-0.63,0.652
1970-01-01 00:00:00.000188599,1755597979682,24.93,-43.76,6.49,,,,,,34.48275862068966,-0.419,-0.63,0.653
1970-01-01 00:00:00.000188629,1755597979711,24.96,-43.76,6.49,,,,,,33.333333333333336,-0.42,-0.631,0.651
1970-01-01 00:00:00.000188658,1755597979741,24.94,-43.76,6.48,,,,,,34.48275862068966,-0.42,-0.632,0.65
1970-01-01 00:00:00.000188688,1755597979771,24.95,-43.77,6.48,,,,,,33.333333333333336,-0.419,-0.633,0.651
1970-01-01 00:00:00.000188747,1755597979830,25.01,-43.77,6.44,,,,,,34.48275862068966,-0.419,-0.63,0.651
1970-01-01 00:00:00.000188777,1755597979860,25.02,-43.78,6.41,,,,,,33.333333333333336,-0.42,-0.632,0.651
1970-01-01 00:00:00.000188807,1755597979889,25.06,-43.77,6.41,,,,,,33.333333333333336,-0.422,-0.633,0.65
1970-01-01 00:00:00.000188836,1755597979919,25.08,-43.76,6.4,,,,,,34.48275862068966,-0.422,-0.632,0.648
1970-01-01 00:00:00.000188866,1755597979948,25.07,-43.78,6.36,,,,,,33.333333333333336,-0.422,-0.631,0.648
1970-01-01 00:00:00.000188895,1755597979978,25.04,-43.77,6.34,,,,,,34.48275862068966,-0.423,-0.633,0.648
1970-01-01 00:00:00.000188955,1755597980037,25.14,-43.73,6.4,,,,,,33.333333333333336,-0.42,-0.628,0.648
1970-01-01 00:00:00.000188984,1755597980067,25.12,-43.75,6.36,,,,,,34.48275862068966,-0.422,-0.628,0.646
1970-01-01 00:00:00.000189014,1755597980096,25.11,-43.79,6.36,,,,,,33.333333333333336,-0.425,-0.632,0.647
1970-01-01 00:00:00.000189044,1755597980126,25.16,-43.78,6.41,,,,,,33.333333333333336,-0.424,-0.633,0.649
1970-01-01 00:00:00.000189073,1755597980156,25.11,-43.77,6.42,,,,,,34.48275862068966,-0.421,-0.633,0.649
1970-01-01 00:00:00.000189103,1755597980185,25.08,-43.77,6.42,,,,,,33.333333333333336,-0.418,-0.632,0.65
1970-01-01 00:00:00.000189132,1755597980215,25.12,-43.76,6.43,,,,,,34.48275862068966,-0.417,-0.63,0.652
1970-01-01 00:00:00.000189152,1755597980235,25.11,-43.77,6.4,,,,,,50.0,-0.418,-0.628,0.651
1970-01-01 00:00:00.000189182,1755597980264,25.05,-43.79,6.37,,,,,,33.333333333333336,-0.423,-0.632,0.65
1970-01-01 00:00:00.000189211,1755597980294,25.1,-43.77,6.42,,,,,,34.48275862068966,-0.423,-0.633,0.65
1970-01-01 00:00:00.000189241,1755597980324,25.14,-43.78,6.44,,,,,,33.333333333333336,-0.42,-0.63,0.649
1970-01-01 00:00:00.000189270,1755597980353,25.07,-43.8,6.41,,,,,,34.48275862068966,-0.418,-0.631,0.649
1970-01-01 00:00:00.000189300,1755597980383,25.09,-43.83,6.4,,,,,,33.333333333333336,-0.418,-0.631,0.652
1970-01-01 00:00:00.000189330,1755597980412,25.12,-43.85,6.4,,,,,,33.333333333333336,-0.42,-0.631,0.652
1970-01-01 00:00:00.000189359,1755597980441,25.09,-43.86,6.4,,,,,,34.48275862068966,-0.421,-0.633,0.649
1970-01-01 00:00:00.000189388,1755597980471,25.11,-43.89,6.43,,,,,,34.48275862068966,-0.421,-0.632,0.647
1970-01-01 00:00:00.000189447,1755597980530,25.06,-43.92,6.41,,,,,,34.48275862068966,-0.425,-0.635,0.648
1970-01-01 00:00:00.000189477,1755597980560,25.1,-43.92,6.47,,,,,,33.333333333333336,-0.424,-0.637,0.648
1970-01-01 00:00:00.000189507,1755597980589,25.11,-43.91,6.51,,,,,,33.333333333333336,-0.423,-0.637,0.648
1970-01-01 00:00:00.000189536,1755597980619,25.09,-43.9,6.53,,,,,,34.48275862068966,-0.423,-0.635,0.647
1970-01-01 00:00:00.000189566,1755597980649,25.11,-43.9,6.54,,,,,,33.333333333333336,-0.422,-0.634,0.65
1970-01-01 00:00:00.000189596,1755597980678,25.13,-43.88,6.54,,,,,,33.333333333333336,-0.42,-0.635,0.649
1970-01-01 00:00:00.000189625,1755597980708,25.11,-43.86,6.53,,,,,,34.48275862068966,-0.421,-0.634,0.647
1970-01-01 00:00:00.000189655,1755597980738,25.09,-43.87,6.53,,,,,,33.333333333333336,-0.424,-0.633,0.645
1970-01-01 00:00:00.000189685,1755597980767,25.09,-43.9,6.56,,,,,,33.333333333333336,-0.424,-0.634,0.647
1970-01-01 00:00:00.000189714,1755597980797,25.09,-43.88,6.58,,,,,,34.48275862068966,-0.422,-0.634,0.648
1970-01-01 00:00:00.000189744,1755597980826,25.07,-43.86,6.57,,,,,,33.333333333333336,-0.422,-0.635,0.649
1970-01-01 00:00:00.000189773,1755597980856,25.08,-43.88,6.59,,,,,,34.48275862068966,-0.422,-0.634,0.647
1970-01-01 00:00:00.000189803,1755597980886,25.08,-43.85,6.6,,,,,,33.333333333333336,-0.422,-0.631,0.647
1970-01-01 00:00:00.000189833,1755597980915,25.05,-43.85,6.59,,,,,,33.333333333333336,-0.423,-0.63,0.648
1970-01-01 00:00:00.000189862,1755597980945,25.05,-43.87,6.59,,,,,,34.48275862068966,-0.422,-0.633,0.649
1970-01-01 00:00:00.000189892,1755597980975,25.08,-43.83,6.62,,,,,,33.333333333333336,-0.421,-0.634,0.649
1970-01-01 00:00:00.000189922,1755597981004,25.06,-43.83,6.62,,,,,,33.333333333333336,-0.42,-0.633,0.648
1970-01-01 00:00:00.000189951,1755597981034,25.02,-43.84,6.62,,,,,,34.48275862068966,-0.421,-0.632,0.647
1970-01-01 00:00:00.000190010,1755597981093,25.02,-43.87,6.65,,,,,,34.48275862068966,-0.423,-0.633,0.649
1970-01-01 00:00:00.000190040,1755597981123,25.01,-43.85,6.68,,,,,,33.333333333333336,-0.421,-0.634,0.649
1970-01-01 00:00:00.000190070,1755597981152,25.01,-43.85,6.71,,,,,,33.333333333333336,-0.418,-0.633,0.648
1970-01-01 00:00:00.000190099,1755597981181,25.0,-43.87,6.7,,,,,,34.48275862068966,-0.417,-0.63,0.65
1970-01-01 00:00:00.000190128,1755597981211,25.0,-43.86,6.67,,,,,,34.48275862068966,-0.42,-0.628,0.652
1970-01-01 00:00:00.000190158,1755597981241,24.99,-43.84,6.67,,,,,,33.333333333333336,-0.424,-0.631,0.649
1970-01-01 00:00:00.000190188,1755597981270,24.99,-43.86,6.71,,,,,,33.333333333333336,-0.425,-0.634,0.647
1970-01-01 00:00:00.000190217,1755597981300,25.02,-43.87,6.74,,,,,,34.48275862068966,-0.419,-0.631,0.65
1970-01-01 00:00:00.000190247,1755597981329,24.96,-43.85,6.7,,,,,,33.333333333333336,-0.42,-0.631,0.651
1970-01-01 00:00:00.000190276,1755597981359,24.93,-43.85,6.68,,,,,,34.48275862068966,-0.427,-0.635,0.648
1970-01-01 00:00:00.000190306,1755597981388,24.99,-43.86,6.76,,,,,,33.333333333333336,-0.428,-0.636,0.645
1970-01-01 00:00:00.000190335,1755597981418,24.98,-43.86,6.81,,,,,,34.48275862068966,-0.422,-0.635,0.648
1970-01-01 00:00:00.000190365,1755597981448,24.92,-43.84,6.8,,,,,,33.333333333333336,-0.416,-0.634,0.65
1970-01-01 00:00:00.000190395,1755597981477,24.93,-43.82,6.79,,,,,,33.333333333333336,-0.418,-0.632,0.652
1970-01-01 00:00:00.000190424,1755597981507,24.95,-43.82,6.79,,,,,,34.48275862068966,-0.422,-0.63,0.652
1970-01-01 00:00:00.000190454,1755597981536,24.95,-43.81,6.79,,,,,,33.333333333333336,-0.422,-0.63,0.651
1970-01-01 00:00:00.000190483,1755597981566,24.96,-43.84,6.81,,,,,,34.48275862068966,-0.421,-0.63,0.65
1970-01-01 00:00:00.000190513,1755597981595,24.96,-43.87,6.81,,,,,,33.333333333333336,-0.419,-0.63,0.651
1970-01-01 00:00:00.000190542,1755597981625,24.93,-43.89,6.8,,,,,,34.48275862068966,-0.419,-0.63,0.653
1970-01-01 00:00:00.000190572,1755597981654,24.93,-43.86,6.78,,,,,,33.333333333333336,-0.42,-0.63,0.653
1970-01-01 00:00:00.000190601,1755597981684,24.92,-43.87,6.77,,,,,,34.48275862068966,-0.421,-0.63,0.651
1970-01-01 00:00:00.000190631,1755597981713,24.93,-43.88,6.79,,,,,,33.333333333333336,-0.423,-0.632,0.652
1970-01-01 00:00:00.000190660,1755597981743,24.96,-43.87,6.82,,,,,,34.48275862068966,-0.42,-0.633,0.654
1970-01-01 00:00:00.000190690,1755597981773,24.95,-43.83,6.81,,,,,,33.333333333333336,-0.417,-0.63,0.653
1970-01-01 00:00:00.000190719,1755597981802,24.94,-43.83,6.78,,,,,,34.48275862068966,-0.42,-0.63,0.652
1970-01-01 00:00:00.000190749,1755597981831,24.95,-43.85,6.77,,,,,,33.333333333333336,-0.423,-0.63,0.651
1970-01-01 00:00:00.000190778,1755597981861,24.94,-43.87,6.78,,,,,,34.48275862068966,-0.424,-0.632,0.651
1970-01-01 00:00:00.000190808,1755597981890,24.96,-43.88,6.81,,,,,,33.333333333333336,-0.422,-0.633,0.652
1970-01-01 00:00:00.000190837,1755597981920,24.97,-43.86,6.81,,,,,,34.48275862068966,-0.42,-0.631,0.654
1970-01-01 00:00:00.000190867,1755597981949,24.95,-43.86,6.79,,,,,,33.333333333333336,-0.42,-0.631,0.652
1970-01-01 00:00:00.000190896,1755597981979,24.93,-43.88,6.79,,,,,,34.48275862068966,-0.423,-0.632,0.649
1970-01-01 00:00:00.000190926,1755597982009,24.93,-43.89,6.82,,,,,,33.333333333333336,-0.425,-0.633,0.65
1970-01-01 00:00:00.000190956,1755597982039,24.93,-43.87,6.86,,,,,,33.333333333333336,-0.422,-0.633,0.653
1970-01-01 00:00:00.000190986,1755597982068,24.94,-43.85,6.86,,,,,,33.333333333333336,-0.419,-0.632,0.652
1970-01-01 00:00:00.000191015,1755597982098,24.9,-43.87,6.83,,,,,,34.48275862068966,-0.42,-0.631,0.65
1970-01-01 00:00:00.000191074,1755597982158,24.91,-43.89,6.88,,,,,,34.48275862068966,-0.423,-0.632,0.653
1970-01-01 00:00:00.000191095,1755597982177,24.92,-43.87,6.9,,,,,,47.61904761904762,-0.42,-0.632,0.653
1970-01-01 00:00:00.000191124,1755597982207,24.92,-43.85,6.91,,,,,,34.48275862068966,-0.418,-0.631,0.651
1970-01-01 00:00:00.000191154,1755597982236,24.88,-43.87,6.88,,,,,,33.333333333333336,-0.42,-0.63,0.65
1970-01-01 00:00:00.000191183,1755597982266,24.87,-43.87,6.89,,,,,,34.48275862068966,-0.422,-0.632,0.652
1970-01-01 00:00:00.000191213,1755597982296,24.94,-43.84,6.94,,,,,,33.333333333333336,-0.422,-0.631,0.653
1970-01-01 00:00:00.000191242,1755597982325,24.95,-43.84,6.94,,,,,,34.48275862068966,-0.419,-0.628,0.65
1970-01-01 00:00:00.000191272,1755597982354,24.91,-43.86,6.9,,,,,,33.333333333333336,-0.419,-0.63,0.65
1970-01-01 00:00:00.000191301,1755597982384,24.93,-43.86,6.9,,,,,,34.48275862068966,-0.422,-0.632,0.652
1970-01-01 00:00:00.000191331,1755597982413,24.97,-43.86,6.92,,,,,,33.333333333333336,-0.423,-0.631,0.651
1970-01-01 00:00:00.000191360,1755597982443,24.93,-43.85,6.92,,,,,,34.48275862068966,-0.422,-0.63,0.648
1970-01-01 00:00:00.000191390,1755597982472,24.92,-43.88,6.92,,,,,,33.333333333333336,-0.422,-0.631,0.649
1970-01-01 00:00:00.000191449,1755597982531,24.9,-43.89,6.9,,,,,,33.333333333333336,-0.42,-0.633,0.651
1970-01-01 00:00:00.000191478,1755597982561,24.9,-43.92,6.9,,,,,,34.48275862068966,-0.42,-0.632,0.649
1970-01-01 00:00:00.000191508,1755597982591,24.9,-43.92,6.89,,,,,,33.333333333333336,-0.421,-0.631,0.649
1970-01-01 00:00:00.000191538,1755597982620,24.89,-43.95,6.87,,,,,,33.333333333333336,-0.421,-0.631,0.65
1970-01-01 00:00:00.000191597,1755597982679,24.47,-43.93,6.88,,,,,,33.333333333333336,-0.42,-0.632,0.649
1970-01-01 00:00:00.000191626,1755597982709,24.42,-43.92,6.86,,,,,,34.48275862068966,-0.421,-0.632,0.646
1970-01-01 00:00:00.000191656,1755597982738,24.38,-43.93,6.86,,,,,,33.333333333333336,-0.423,-0.634,0.646
1970-01-01 00:00:00.000191685,1755597982768,24.43,-43.91,6.91,,,,,,34.48275862068966,-0.421,-0.637,0.651
1970-01-01 00:00:00.000191715,1755597982798,24.43,-43.88,6.93,,,,,,33.333333333333336,-0.417,-0.634,0.652
1970-01-01 00:00:00.000191744,1755597982827,24.42,-43.85,6.91,,,,,,34.48275862068966,-0.418,-0.63,0.653
1970-01-01 00:00:00.000191774,1755597982857,24.45,-43.84,6.91,,,,,,33.333333333333336,-0.422,-0.63,0.651
1970-01-01 00:00:00.000191804,1755597982886,24.5,-43.85,6.93,,,,,,33.333333333333336,-0.422,-0.631,0.649
1970-01-01 00:00:00.000191833,1755597982916,24.51,-43.86,6.94,,,,,,34.48275862068966,-0.419,-0.63,0.65
1970-01-01 00:00:00.000191863,1755597982945,24.51,-43.87,6.92,,,,,,33.333333333333336,-0.417,-0.63,0.653
1970-01-01 00:00:00.000191892,1755597982975,24.53,-43.86,6.89,,,,,,34.48275862068966,-0.418,-0.63,0.653
1970-01-01 00:00:00.000191922,1755597983004,24.54,-43.84,6.88,,,,,,33.333333333333336,-0.422,-0.63,0.65
1970-01-01 00:00:00.000191951,1755597983034,24.53,-43.87,6.88,,,,,,34.48275862068966,-0.423,-0.632,0.648
1970-01-01 00:00:00.000191981,1755597983063,24.52,-43.89,6.88,,,,,,33.333333333333336,-0.421,-0.632,0.65
1970-01-01 00:00:00.000192010,1755597983093,24.52,-43.88,6.86,,,,,,34.48275862068966,-0.42,-0.633,0.652
1970-01-01 00:00:00.000192040,1755597983122,24.52,-43.85,6.85,,,,,,33.333333333333336,-0.422,-0.633,0.65
1970-01-01 00:00:00.000192069,1755597983152,24.53,-43.84,6.87,,,,,,34.48275862068966,-0.422,-0.633,0.65
1970-01-01 00:00:00.000192099,1755597983181,24.54,-43.86,6.88,,,,,,33.333333333333336,-0.421,-0.632,0.652
1970-01-01 00:00:00.000192128,1755597983211,24.53,-43.85,6.89,,,,,,34.48275862068966,-0.42,-0.632,0.653
1970-01-01 00:00:00.000192158,1755597983240,24.55,-43.85,6.89,,,,,,33.333333333333336,-0.419,-0.631,0.652
1970-01-01 00:00:00.000192187,1755597983270,24.58,-43.88,6.89,,,,,,34.48275862068966,-0.421,-0.633,0.65
1970-01-01 00:00:00.000192216,1755597983299,24.57,-43.89,6.92,,,,,,34.48275862068966,-0.421,-0.633,0.65
1970-01-01 00:00:00.000192246,1755597983329,24.58,-43.89,6.94,,,,,,33.333333333333336,-0.42,-0.632,0.653
1970-01-01 00:00:00.000192276,1755597983358,24.6,-43.88,6.95,,,,,,33.333333333333336,-0.417,-0.632,0.654
1970-01-01 00:00:00.000192305,1755597983388,24.61,-43.87,6.94,,,,,,34.48275862068966,-0.418,-0.631,0.653
1970-01-01 00:00:00.000192335,1755597983418,24.62,-43.89,6.94,,,,,,33.333333333333336,-0.42,-0.631,0.652
1970-01-01 00:00:00.000192365,1755597983447,24.62,-43.89,6.95,,,,,,33.333333333333336,-0.42,-0.629,0.653
1970-01-01 00:00:00.000192394,1755597983477,24.62,-43.87,6.96,,,,,,34.48275862068966,-0.42,-0.63,0.653
1970-01-01 00:00:00.000192424,1755597983507,24.63,-43.89,6.96,,,,,,33.333333333333336,-0.42,-0.632,0.651
1970-01-01 00:00:00.000192483,1755597983566,24.63,-43.89,6.98,,,,,,33.333333333333336,-0.419,-0.632,0.652
1970-01-01 00:00:00.000192513,1755597983596,24.63,-43.87,6.97,,,,,,33.333333333333336,-0.419,-0.631,0.654
1970-01-01 00:00:00.000192542,1755597983625,24.64,-43.85,6.98,,,,,,34.48275862068966,-0.421,-0.631,0.653
1970-01-01 00:00:00.000192572,1755597983655,24.67,-43.84,7.0,,,,,,33.333333333333336,-0.421,-0.631,0.651
1970-01-01 00:00:00.000192602,1755597983684,24.66,-43.83,7.03,,,,,,33.333333333333336,-0.42,-0.632,0.653
1970-01-01 00:00:00.000192661,1755597983743,24.69,-43.8,7.03,,,,,,33.333333333333336,-0.416,-0.629,0.652
1970-01-01 00:00:00.000192690,1755597983773,24.68,-43.82,7.01,,,,,,34.48275862068966,-0.421,-0.631,0.652
1970-01-01 00:00:00.000192720,1755597983802,24.72,-43.81,7.05,,,,,,33.333333333333336,-0.422,-0.633,0.653
1970-01-01 00:00:00.000192749,1755597983832,24.75,-43.79,7.06,,,,,,34.48275862068966,-0.419,-0.632,0.652
1970-01-01 00:00:00.000192779,1755597983861,24.72,-43.78,7.03,,,,,,33.333333333333336,-0.419,-0.63,0.651
1970-01-01 00:00:00.000192808,1755597983891,24.74,-43.79,7.03,,,,,,34.48275862068966,-0.421,-0.631,0.653
1970-01-01 00:00:00.000192838,1755597983920,24.81,-43.78,7.05,,,,,,33.333333333333336,-0.419,-0.63,0.653
1970-01-01 00:00:00.000192867,1755597983950,24.83,-43.8,7.03,,,,,,34.48275862068966,-0.418,-0.629,0.652
1970-01-01 00:00:00.000192897,1755597983979,24.83,-43.82,7.0,,,,,,33.333333333333336,-0.419,-0.629,0.654
1970-01-01 00:00:00.000192926,1755597984009,24.86,-43.82,7.0,,,,,,34.48275862068966,-0.419,-0.628,0.655
1970-01-01 00:00:00.000192956,1755597984038,24.89,-43.83,6.98,,,,,,33.333333333333336,-0.42,-0.63,0.654
1970-01-01 00:00:00.000192985,1755597984068,24.91,-43.82,6.96,,,,,,34.48275862068966,-0.42,-0.63,0.652
1970-01-01 00:00:00.000193015,1755597984098,24.94,-43.84,6.95,,,,,,33.333333333333336,-0.421,-0.628,0.651
1970-01-01 00:00:00.000193074,1755597984157,24.99,-43.92,6.92,,,,,,34.48275862068966,-0.425,-0.63,0.648
1970-01-01 00:00:00.000193104,1755597984186,25.02,-43.95,6.92,,,,,,33.333333333333336,-0.422,-0.63,0.647
1970-01-01 00:00:00.000193133,1755597984216,25.01,-43.99,6.89,,,,,,34.48275862068966,-0.421,-0.628,0.647
1970-01-01 00:00:00.000193163,1755597984245,25.01,-44.03,6.84,,,,,,33.333333333333336,-0.423,-0.632,0.647
1970-01-01 00:00:00.000193192,1755597984275,25.02,-44.07,6.83,,,,,,34.48275862068966,-0.424,-0.634,0.646
1970-01-01 00:00:00.000193222,1755597984305,25.05,-44.09,6.84,,,,,,33.333333333333336,-0.424,-0.632,0.649
1970-01-01 00:00:00.000193251,1755597984334,25.06,-44.08,6.83,,,,,,34.48275862068966,-0.423,-0.634,0.651
1970-01-01 00:00:00.000193280,1755597984363,25.07,-44.07,6.84,,,,,,34.48275862068966,-0.422,-0.637,0.648
1970-01-01 00:00:00.000193310,1755597984392,25.1,-44.08,6.86,,,,,,33.333333333333336,-0.422,-0.637,0.646
1970-01-01 00:00:00.000193339,1755597984422,25.12,-44.11,6.86,,,,,,34.48275862068966,-0.421,-0.635,0.645
1970-01-01 00:00:00.000193369,1755597984451,25.09,-44.13,6.84,,,,,,33.333333333333336,-0.422,-0.637,0.647
1970-01-01 00:00:00.000193398,1755597984481,25.11,-44.13,6.85,,,,,,34.48275862068966,-0.422,-0.638,0.65
1970-01-01 00:00:00.000193428,1755597984510,25.16,-44.08,6.9,,,,,,33.333333333333336,-0.421,-0.636,0.649
1970-01-01 00:00:00.000193487,1755597984570,25.1,-44.15,6.87,,,,,,33.333333333333336,-0.426,-0.632,0.641
1970-01-01 00:00:00.000193517,1755597984599,25.1,-44.17,6.88,,,,,,33.333333333333336,-0.428,-0.635,0.645
1970-01-01 00:00:00.000193546,1755597984629,25.11,-44.17,6.91,,,,,,34.48275862068966,-0.426,-0.639,0.647
1970-01-01 00:00:00.000193576,1755597984658,25.12,-44.15,6.94,,,,,,33.333333333333336,-0.423,-0.638,0.645
1970-01-01 00:00:00.000193605,1755597984688,25.11,-44.13,6.94,,,,,,34.48275862068966,-0.422,-0.637,0.645
1970-01-01 00:00:00.000193635,1755597984717,25.1,-44.15,6.93,,,,,,33.333333333333336,-0.424,-0.635,0.646
1970-01-01 00:00:00.000193664,1755597984747,25.1,-44.14,6.95,,,,,,34.48275862068966,-0.425,-0.634,0.648
1970-01-01 00:00:00.000193723,1755597984806,25.12,-44.14,6.97,,,,,,34.48275862068966,-0.422,-0.634,0.647
1970-01-01 00:00:00.000193753,1755597984835,25.14,-44.14,6.97,,,,,,33.333333333333336,-0.421,-0.635,0.648
1970-01-01 00:00:00.000193782,1755597984865,25.12,-44.13,6.95,,,,,,34.48275862068966,-0.422,-0.634,0.647
1970-01-01 00:00:00.000193812,1755597984895,25.12,-44.12,6.96,,,,,,33.333333333333336,-0.424,-0.634,0.648
1970-01-01 00:00:00.000193841,1755597984924,25.16,-44.13,6.97,,,,,,34.48275862068966,-0.425,-0.634,0.645
1970-01-01 00:00:00.000193871,1755597984953,25.13,-44.15,6.96,,,,,,33.333333333333336,-0.423,-0.635,0.645
1970-01-01 00:00:00.000193900,1755597984983,25.58,-44.16,6.95,,,,,,34.48275862068966,-0.421,-0.634,0.648
1970-01-01 00:00:00.000193930,1755597985012,25.58,-44.16,6.91,,,,,,33.333333333333336,-0.423,-0.633,0.647
1970-01-01 00:00:00.000193959,1755597985042,25.57,-44.17,6.89,,,,,,34.48275862068966,-0.426,-0.635,0.645
1970-01-01 00:00:00.000193989,1755597985071,25.59,-44.16,6.91,,,,,,33.333333333333336,-0.426,-0.636,0.646
1970-01-01 00:00:00.000194018,1755597985101,25.61,-44.16,6.93,,,,,,34.48275862068966,-0.424,-0.636,0.646
1970-01-01 00:00:00.000194048,1755597985131,25.57,-44.14,6.91,,,,,,33.333333333333336,-0.422,-0.635,0.646
1970-01-01 00:00:00.000194077,1755597985160,25.55,-44.14,6.89,,,,,,34.48275862068966,-0.422,-0.637,0.646
1970-01-01 00:00:00.000194107,1755597985190,25.58,-44.17,6.89,,,,,,33.333333333333336,-0.424,-0.636,0.643
1970-01-01 00:00:00.000194166,1755597985249,25.53,-44.15,6.9,,,,,,34.48275862068966,-0.425,-0.636,0.648
1970-01-01 00:00:00.000194196,1755597985278,25.56,-44.16,6.93,,,,,,33.333333333333336,-0.422,-0.636,0.647
1970-01-01 00:00:00.000194225,1755597985308,25.55,-44.15,6.92,,,,,,34.48275862068966,-0.422,-0.637,0.646
1970-01-01 00:00:00.000194255,1755597985338,25.48,-44.13,6.91,,,,,,33.333333333333336,-0.423,-0.637,0.646
1970-01-01 00:00:00.000194275,1755597985358,25.48,-44.13,6.91,,,,,,50.0,-0.424,-0.636,0.647
1970-01-01 00:00:00.000194305,1755597985388,25.5,-44.11,6.92,,,,,,33.333333333333336,-0.422,-0.635,0.645
1970-01-01 00:00:00.000194334,1755597985417,25.46,-44.12,6.88,,,,,,34.48275862068966,-0.424,-0.634,0.646
1970-01-01 00:00:00.000194394,1755597985476,25.45,-44.11,6.89,,,,,,33.333333333333336,-0.425,-0.636,0.647
1970-01-01 00:00:00.000194423,1755597985506,25.47,-44.11,6.91,,,,,,34.48275862068966,-0.424,-0.637,0.646
1970-01-01 00:00:00.000194453,1755597985535,25.44,-44.12,6.91,,,,,,33.333333333333336,-0.424,-0.636,0.643
1970-01-01 00:00:00.000194482,1755597985564,25.41,-44.13,6.91,,,,,,34.48275862068966,-0.424,-0.636,0.645
1970-01-01 00:00:00.000194511,1755597985594,25.4,-44.1,6.92,,,,,,34.48275862068966,-0.425,-0.637,0.647
1970-01-01 00:00:00.000194541,1755597985624,25.41,-44.07,6.95,,,,,,33.333333333333336,-0.425,-0.637,0.646
1970-01-01 00:00:00.000194570,1755597985653,25.39,-44.06,6.96,,,,,,34.48275862068966,-0.423,-0.635,0.644
1970-01-01 00:00:00.000194600,1755597985683,25.36,-44.07,6.94,,,,,,33.333333333333336,-0.422,-0.633,0.645
1970-01-01 00:00:00.000194629,1755597985712,25.33,-44.08,6.92,,,,,,34.48275862068966,-0.424,-0.634,0.646
1970-01-01 00:00:00.000194659,1755597985742,25.34,-44.09,6.94,,,,,,33.333333333333336,-0.424,-0.634,0.646
1970-01-01 00:00:00.000194689,1755597985771,25.33,-44.08,6.95,,,,,,33.333333333333336,-0.422,-0.634,0.647
1970-01-01 00:00:00.000194718,1755597985801,25.31,-44.08,6.94,,,,,,34.48275862068966,-0.422,-0.635,0.647
1970-01-01 00:00:00.000194748,1755597985830,25.28,-44.07,6.94,,,,,,33.333333333333336,-0.423,-0.635,0.646
1970-01-01 00:00:00.000194777,1755597985860,25.28,-44.08,6.97,,,,,,34.48275862068966,-0.423,-0.635,0.646
