timestamp_ms,recv_timestamp_ms,pitch,roll,yaw,flex1,flex2,flex3,flex4,flex5,sampling_hz,accel_x,accel_y,accel_z
101098,1755606427749,21.93,54.8,-12.59,787,773,782,414,867,33.333333333333336,-0.379,0.765,0.545
101127,1755606427751,21.97,54.39,-12.59,788,776,785,414,859,34.48275862068966,-0.378,0.761,0.54
101156,1755606427753,21.98,54.38,-12.56,783,776,780,368,866,34.48275862068966,-0.379,0.761,0.536
101186,1755606427755,21.97,54.32,-12.54,782,775,776,356,867,33.333333333333336,-0.378,0.76,0.539
101216,1755606427757,22.0,54.31,-12.55,787,779,777,382,869,33.333333333333336,-0.38,0.762,0.544
101245,1755606427759,22.01,54.39,-12.53,788,779,779,421,871,34.48275862068966,-0.378,0.762,0.544
101274,1755606427761,22.0,54.4,-12.54,783,779,780,388,867,34.48275862068966,-0.375,0.76,0.541
101333,1755606427765,21.99,54.34,-12.62,787,780,774,371,869,34.48275862068966,-0.375,0.76,0.54
101363,1755606427768,21.98,54.33,-12.68,787,775,783,412,863,33.333333333333336,-0.377,0.76,0.541
101412,1755606427771,22.04,54.31,-12.73,787,774,777,410,872,50.0,-0.383,0.757,0.541
101442,1755606427773,22.08,54.3,-12.72,784,782,776,382,870,33.333333333333336,-0.383,0.758,0.541
101471,1755606427775,22.07,54.31,-12.69,789,769,778,363,868,34.48275862068966,-0.38,0.759,0.539
101530,1755606427780,22.08,54.27,-12.76,787,774,779,373,863,34.48275862068966,-0.377,0.758,0.542
101560,1755606427781,22.08,54.27,-12.78,790,779,776,385,871,33.333333333333336,-0.376,0.758,0.541
101590,1755606427784,22.07,54.18,-12.84,787,772,780,359,867,33.333333333333336,-0.373,0.755,0.539
101619,1755606427786,22.12,54.05,-13.07,786,773,774,327,869,34.48275862068966,-0.379,0.756,0.539
101649,1755606427788,22.08,53.97,-13.08,786,779,776,393,866,33.333333333333336,-0.388,0.753,0.547
101678,1755606427790,22.12,53.97,-13.06,786,777,779,415,869,34.48275862068966,-0.389,0.752,0.549
101708,1755606427793,22.17,54.0,-13.04,782,772,783,383,864,33.333333333333336,-0.386,0.752,0.547
101737,1755606427795,22.22,53.95,-13.09,783,775,776,344,869,34.48275862068966,-0.38,0.751,0.548
101767,1755606427796,22.25,53.93,-13.12,786,776,782,368,867,33.333333333333336,-0.38,0.753,0.549
101796,1755606427798,22.28,53.93,-13.19,787,770,778,414,868,34.48275862068966,-0.381,0.755,0.544
101855,1755606427848,22.26,53.91,-13.29,787,777,781,368,867,34.48275862068966,-0.387,0.753,0.545
101885,1755606427877,22.28,53.94,-13.3,789,772,779,328,869,33.333333333333336,-0.391,0.754,0.548
101914,1755606427907,22.32,53.94,-13.3,784,778,775,403,870,34.48275862068966,-0.39,0.751,0.544
101944,1755606427936,22.38,53.87,-13.37,785,771,779,367,864,33.333333333333336,-0.39,0.75,0.543
101973,1755606427966,22.4,53.85,-13.43,785,779,776,360,872,34.48275862068966,-0.388,0.75,0.546
102003,1755606427995,22.43,53.85,-13.51,787,770,782,355,866,33.333333333333336,-0.39,0.748,0.55
102032,1755606428025,22.41,53.87,-13.53,788,774,781,387,864,34.48275862068966,-0.39,0.747,0.552
102062,1755606428054,22.43,53.91,-13.52,784,773,784,413,867,33.333333333333336,-0.393,0.747,0.552
102091,1755606428084,22.44,53.97,-13.51,785,773,780,384,869,34.48275862068966,-0.396,0.746,0.549
102121,1755606428113,22.43,54.02,-13.46,785,780,775,352,863,33.333333333333336,-0.397,0.747,0.546
102150,1755606428142,22.44,54.03,-13.51,788,772,779,386,874,34.48275862068966,-0.394,0.746,0.542
102179,1755606428172,22.46,53.94,-13.52,786,779,778,411,871,34.48275862068966,-0.397,0.743,0.541
102209,1755606428201,22.45,53.94,-13.31,788,775,780,395,867,33.333333333333336,-0.397,0.747,0.549
102238,1755606428231,22.45,54.04,-13.16,787,774,777,307,866,34.48275862068966,-0.39,0.751,0.553
102268,1755606428260,22.49,54.1,-13.16,783,776,782,337,866,33.333333333333336,-0.387,0.752,0.549
102297,1755606428290,22.49,54.12,-13.14,783,776,778,397,860,34.48275862068966,-0.389,0.748,0.544
102327,1755606428319,22.5,54.12,-13.04,787,776,776,403,865,33.333333333333336,-0.393,0.747,0.546
102385,1755606428378,22.58,54.15,-13.03,786,774,781,337,863,34.48275862068966,-0.386,0.752,0.546
102415,1755606428408,22.56,54.15,-13.03,784,777,778,395,863,33.333333333333336,-0.382,0.752,0.54
102445,1755606428438,22.52,54.13,-13.08,785,773,780,403,868,33.333333333333336,-0.379,0.753,0.538
102475,1755606428467,22.48,54.13,-13.14,783,776,774,370,867,33.333333333333336,-0.381,0.755,0.539
102504,1755606428496,22.42,54.1,-13.19,787,775,782,355,867,34.48275862068966,-0.382,0.752,0.539
102533,1755606428526,22.4,54.0,-13.29,786,778,781,372,870,34.48275862068966,-0.385,0.75,0.545
102563,1755606428555,22.37,53.93,-13.26,787,780,777,420,866,33.333333333333336,-0.387,0.749,0.551
102622,1755606428614,22.42,54.05,-13.23,786,770,778,356,855,33.333333333333336,-0.386,0.751,0.554
102680,1755606428673,22.41,54.1,-13.23,785,773,780,412,866,34.48275862068966,-0.384,0.749,0.545
102710,1755606428703,22.35,54.05,-13.16,788,775,778,374,866,33.333333333333336,-0.386,0.75,0.545
102740,1755606428732,22.32,54.05,-13.15,783,778,777,344,865,33.333333333333336,-0.386,0.75,0.55
102769,1755606428761,22.38,54.1,-13.12,782,779,780,331,869,34.48275862068966,-0.388,0.751,0.552
102798,1755606428791,22.37,54.12,-13.03,787,771,779,382,869,34.48275862068966,-0.382,0.751,0.545
102828,1755606428820,22.34,54.08,-13.03,788,773,783,411,866,33.333333333333336,-0.377,0.752,0.539
102857,1755606428850,22.28,54.04,-13.05,788,774,781,365,868,34.48275862068966,-0.38,0.754,0.54
102887,1755606428879,22.24,54.0,-13.06,782,778,780,342,866,33.333333333333336,-0.384,0.753,0.546
102916,1755606428909,22.3,54.03,-13.09,782,780,782,359,862,34.48275862068966,-0.388,0.751,0.552
102946,1755606428939,22.32,54.03,-13.04,787,779,781,397,868,33.333333333333336,-0.387,0.748,0.554
103005,1755606428998,22.38,54.01,-12.96,786,777,779,363,867,34.48275862068966,-0.381,0.751,0.557
103035,1755606429027,22.4,54.09,-12.96,789,774,782,364,867,33.333333333333336,-0.376,0.753,0.551
103064,1755606429057,22.4,54.08,-13.03,784,770,779,391,863,34.48275862068966,-0.376,0.751,0.547
103094,1755606429086,22.38,54.02,-13.04,785,781,779,397,870,33.333333333333336,-0.379,0.753,0.545
103123,1755606429116,22.36,54.04,-13.05,785,775,782,372,868,34.48275862068966,-0.381,0.756,0.545
103153,1755606429145,22.36,54.04,-13.09,784,776,779,349,865,33.333333333333336,-0.382,0.753,0.545
103182,1755606429175,22.37,53.97,-13.09,784,776,778,378,868,34.48275862068966,-0.383,0.752,0.547
103242,1755606429234,22.44,54.05,-13.13,788,768,779,399,864,33.333333333333336,-0.38,0.755,0.555
103271,1755606429264,22.52,54.05,-13.24,782,773,778,340,863,34.48275862068966,-0.377,0.753,0.553
103301,1755606429293,22.56,54.07,-13.32,785,776,775,344,869,33.333333333333336,-0.378,0.752,0.552
103330,1755606429323,22.61,54.11,-13.34,786,774,779,401,866,34.48275862068966,-0.382,0.753,0.552
103360,1755606429353,22.64,54.15,-13.4,786,777,782,399,864,33.333333333333336,-0.385,0.754,0.55
103389,1755606429382,22.69,54.14,-13.45,784,776,782,369,867,34.48275862068966,-0.389,0.749,0.545
103419,1755606429412,22.67,54.13,-13.38,785,775,782,350,867,33.333333333333336,-0.392,0.749,0.548
103449,1755606429441,22.65,54.17,-13.32,786,776,777,394,866,33.333333333333336,-0.389,0.754,0.548
103478,1755606429471,22.69,54.18,-13.35,786,772,780,427,872,34.48275862068966,-0.387,0.754,0.548
103507,1755606429500,22.65,54.15,-13.29,788,776,780,396,870,34.48275862068966,-0.385,0.752,0.546
103537,1755606429529,22.62,54.11,-13.29,784,780,781,347,865,33.333333333333336,-0.384,0.752,0.545
103566,1755606429559,22.62,54.1,-13.33,781,781,780,361,868,34.48275862068966,-0.387,0.754,0.547
103596,1755606429588,22.65,54.14,-13.35,786,773,780,417,873,33.333333333333336,-0.39,0.754,0.549
103625,1755606429618,22.61,54.15,-13.28,787,775,779,407,860,34.48275862068966,-0.389,0.754,0.545
103684,1755606429677,22.59,54.2,-13.27,786,771,780,362,868,34.48275862068966,-0.385,0.757,0.548
103714,1755606429706,22.64,54.25,-13.3,784,778,777,403,871,33.333333333333336,-0.386,0.755,0.545
103743,1755606429736,22.59,54.19,-13.26,787,770,783,405,869,34.48275862068966,-0.385,0.752,0.542
103763,1755606429756,22.58,54.17,-13.26,787,777,778,386,867,50.0,-0.385,0.753,0.542
103793,1755606429786,22.58,54.19,-13.27,786,771,779,398,864,33.333333333333336,-0.388,0.755,0.546
103823,1755606429815,22.6,54.24,-13.27,786,770,782,357,868,33.333333333333336,-0.388,0.755,0.544
103881,1755606429874,22.57,54.2,-13.23,788,773,778,392,867,34.48275862068966,-0.384,0.755,0.546
103911,1755606429903,22.61,54.25,-13.26,787,774,781,415,868,33.333333333333336,-0.384,0.756,0.546
103940,1755606429933,22.64,54.27,-13.27,786,774,776,377,871,34.48275862068966,-0.383,0.754,0.542
103970,1755606429962,22.61,54.24,-13.25,785,776,778,356,868,33.333333333333336,-0.383,0.754,0.54
103999,1755606429992,22.63,54.27,-13.3,785,781,782,381,867,34.48275862068966,-0.384,0.754,0.544
104029,1755606430021,22.68,54.39,-13.32,785,775,778,426,866,33.333333333333336,-0.388,0.757,0.548
104058,1755606430051,22.71,54.42,-13.32,784,777,781,393,863,34.48275862068966,-0.386,0.755,0.544
104088,1755606430081,22.68,54.38,-13.29,783,779,781,344,864,33.333333333333336,-0.384,0.753,0.539
104117,1755606430110,22.68,54.38,-13.29,789,774,776,358,867,34.48275862068966,-0.384,0.756,0.542
104147,1755606430140,22.71,54.42,-13.31,782,778,778,408,867,33.333333333333336,-0.384,0.759,0.544
104177,1755606430169,22.73,54.4,-13.35,782,776,775,417,865,33.333333333333336,-0.383,0.757,0.54
104206,1755606430199,22.69,54.36,-13.34,788,768,779,369,866,34.48275862068966,-0.384,0.754,0.537
104236,1755606430229,22.68,54.32,-13.32,787,770,781,356,865,33.333333333333336,-0.386,0.755,0.541
104256,1755606430249,22.69,54.36,-13.31,782,775,780,402,864,50.0,-0.387,0.76,0.546
104286,1755606430278,22.73,54.45,-13.32,786,779,777,363,866,33.333333333333336,-0.384,0.759,0.545
104315,1755606430308,22.72,54.43,-13.34,786,769,780,384,861,34.48275862068966,-0.383,0.755,0.538
104345,1755606430337,22.67,54.37,-13.31,787,775,780,431,870,33.333333333333336,-0.383,0.758,0.539
104374,1755606430367,22.68,54.34,-13.34,782,782,783,395,865,34.48275862068966,-0.387,0.761,0.544
104404,1755606430396,22.7,54.36,-13.36,782,776,781,358,869,33.333333333333336,-0.386,0.759,0.543
104433,1755606430425,22.7,54.36,-13.37,788,770,779,364,865,34.48275862068966,-0.385,0.755,0.54
104462,1755606430455,22.68,54.33,-13.34,789,775,774,409,861,34.48275862068966,-0.385,0.756,0.54
104492,1755606430484,22.66,54.32,-13.33,786,776,776,393,866,33.333333333333336,-0.385,0.759,0.541
104521,1755606430514,22.66,54.34,-13.34,787,771,774,363,863,34.48275862068966,-0.384,0.759,0.543
104551,1755606430543,22.68,54.34,-13.37,788,776,784,366,871,33.333333333333336,-0.384,0.758,0.543
104580,1755606430573,22.69,54.36,-13.37,783,780,775,406,858,34.48275862068966,-0.384,0.757,0.542
104610,1755606430602,22.67,54.35,-13.37,786,772,780,424,868,33.333333333333336,-0.384,0.757,0.541
104639,1755606430632,22.68,54.32,-13.4,781,770,782,382,862,34.48275862068966,-0.385,0.756,0.542
104669,1755606430661,22.66,54.32,-13.37,786,773,778,340,866,33.333333333333336,-0.385,0.757,0.539
104698,1755606430691,22.65,54.32,-13.39,786,776,779,384,866,34.48275862068966,-0.383,0.759,0.533
104728,1755606430721,22.64,54.26,-13.4,785,775,782,425,865,33.333333333333336,-0.383,0.757,0.534
104757,1755606430750,22.58,54.16,-13.41,783,776,779,389,865,34.48275862068966,-0.382,0.755,0.54
104787,1755606430779,22.58,54.14,-13.45,788,780,782,354,868,33.333333333333336,-0.386,0.754,0.548
104816,1755606430809,22.61,54.19,-13.44,784,774,779,363,872,34.48275862068966,-0.389,0.755,0.548
104846,1755606430839,22.67,54.19,-13.33,786,774,778,400,865,33.333333333333336,-0.386,0.756,0.534
104876,1755606430868,22.57,54.06,-13.23,786,775,779,398,872,33.333333333333336,-0.38,0.757,0.535
104905,1755606430898,22.53,53.9,-13.47,786,775,781,347,866,34.48275862068966,-0.38,0.753,0.557
104935,1755606430927,22.66,54.01,-13.55,789,771,783,340,863,33.333333333333336,-0.391,0.751,0.568
104964,1755606430957,22.68,54.06,-13.33,783,780,775,393,865,34.48275862068966,-0.387,0.75,0.55
104994,1755606430986,22.51,53.96,-13.06,784,778,777,405,869,33.333333333333336,-0.376,0.752,0.542
105053,1755606431046,22.59,54.01,-13.6,782,779,780,358,864,33.333333333333336,-0.374,0.754,0.561
105083,1755606431075,22.59,54.07,-13.52,787,776,781,380,864,33.333333333333336,-0.379,0.747,0.552
105112,1755606431105,22.47,53.89,-13.44,790,780,781,409,866,34.48275862068966,-0.371,0.75,0.542
105171,1755606431164,22.49,53.94,-13.6,785,777,779,349,869,34.48275862068966,-0.38,0.759,0.556
105201,1755606431193,22.57,54.06,-13.69,786,780,778,362,865,33.333333333333336,-0.381,0.752,0.552
105230,1755606431223,22.55,54.02,-13.58,781,779,781,405,866,34.48275862068966,-0.379,0.746,0.542
105260,1755606431252,22.44,53.81,-13.5,785,780,780,400,862,33.333333333333336,-0.379,0.751,0.544
105289,1755606431281,22.52,53.87,-13.6,784,771,779,360,868,34.48275862068966,-0.387,0.759,0.55
105318,1755606431311,22.52,54.14,-13.52,785,778,782,340,869,34.48275862068966,-0.387,0.756,0.541
105348,1755606431340,22.47,54.06,-13.42,787,774,779,377,865,33.333333333333336,-0.384,0.748,0.542
105377,1755606431370,22.54,53.95,-13.4,788,777,777,410,863,34.48275862068966,-0.381,0.747,0.553
105407,1755606431400,22.57,53.98,-13.36,781,772,785,378,865,33.333333333333336,-0.381,0.753,0.556
105427,1755606431419,22.57,54.01,-13.32,785,776,783,398,865,50.0,-0.377,0.753,0.558
105456,1755606431449,22.75,54.03,-13.43,785,774,781,363,866,34.48275862068966,-0.376,0.754,0.551
105486,1755606431479,22.71,54.07,-13.39,787,774,779,339,866,33.333333333333336,-0.374,0.752,0.542
105515,1755606431508,22.71,53.96,-13.51,788,769,784,367,862,34.48275862068966,-0.376,0.752,0.54
105545,1755606431537,22.76,53.83,-13.6,782,776,782,412,868,33.333333333333336,-0.382,0.752,0.544
105574,1755606431567,22.77,53.85,-13.48,789,779,779,403,879,34.48275862068966,-0.383,0.754,0.546
105604,1755606431596,22.73,53.81,-13.45,787,773,779,345,861,33.333333333333336,-0.377,0.753,0.548
105662,1755606431655,22.96,53.8,-13.71,784,780,780,412,868,34.48275862068966,-0.385,0.749,0.559
105692,1755606431685,22.99,53.85,-13.68,786,780,783,393,868,33.333333333333336,-0.383,0.747,0.549
105721,1755606431714,23.01,53.71,-13.78,789,776,780,357,867,34.48275862068966,-0.381,0.745,0.542
105751,1755606431744,23.06,53.61,-13.82,787,775,780,340,863,33.333333333333336,-0.386,0.75,0.548
105781,1755606431773,23.06,53.61,-13.84,783,774,779,354,867,33.333333333333336,-0.387,0.751,0.552
105810,1755606431803,23.07,53.62,-13.89,786,777,781,346,865,34.48275862068966,-0.388,0.749,0.557
105839,1755606431832,23.11,53.59,-13.9,786,769,780,353,867,34.48275862068966,-0.389,0.746,0.561
105869,1755606431862,23.14,53.68,-13.77,786,777,779,326,865,33.333333333333336,-0.387,0.749,0.557
105899,1755606431891,23.1,53.78,-13.67,786,772,781,367,863,33.333333333333336,-0.381,0.755,0.548
105928,1755606431921,23.08,53.76,-13.76,788,776,785,395,864,34.48275862068966,-0.375,0.754,0.541
105958,1755606431951,23.03,53.77,-13.82,785,780,781,391,861,33.333333333333336,-0.38,0.754,0.543
105987,1755606431980,22.94,53.77,-13.84,782,779,774,348,868,34.48275862068966,-0.385,0.752,0.543
106017,1755606432009,22.94,53.71,-13.9,781,779,777,370,869,33.333333333333336,-0.389,0.749,0.546
106046,1755606432039,22.93,53.71,-13.87,787,780,781,414,866,34.48275862068966,-0.391,0.75,0.551
106076,1755606432069,22.95,53.75,-13.84,784,781,781,415,873,33.333333333333336,-0.387,0.751,0.554
106105,1755606432098,22.98,53.87,-13.88,784,775,780,355,863,34.48275862068966,-0.384,0.753,0.55
106135,1755606432127,22.97,53.9,-13.95,781,782,777,337,868,33.333333333333336,-0.385,0.75,0.546
106164,1755606432157,22.93,53.9,-13.97,788,780,780,389,862,34.48275862068966,-0.387,0.748,0.543
106194,1755606432187,22.88,53.83,-14.0,786,777,779,403,866,33.333333333333336,-0.388,0.748,0.541
106224,1755606432216,22.88,53.81,-14.04,785,776,777,388,862,33.333333333333336,-0.391,0.75,0.548
106253,1755606432245,22.89,53.89,-14.03,781,779,780,356,868,34.48275862068966,-0.393,0.752,0.552
106282,1755606432275,22.9,53.97,-13.98,785,773,781,370,861,34.48275862068966,-0.39,0.749,0.549
106312,1755606432305,22.97,53.91,-14.06,784,782,774,403,864,33.333333333333336,-0.39,0.747,0.544
106341,1755606432334,22.97,53.8,-14.07,782,774,782,395,869,34.48275862068966,-0.39,0.744,0.543
106371,1755606432363,22.93,53.74,-14.06,786,779,780,367,866,33.333333333333336,-0.389,0.747,0.545
106400,1755606432393,22.93,53.8,-14.08,788,774,779,369,864,34.48275862068966,-0.392,0.751,0.55
106430,1755606432422,22.94,53.85,-14.09,784,779,780,410,869,33.333333333333336,-0.392,0.75,0.548
106459,1755606432452,22.94,53.87,-14.08,787,777,775,406,862,34.48275862068966,-0.392,0.748,0.548
106489,1755606432481,22.93,53.83,-14.04,782,781,779,366,865,33.333333333333336,-0.392,0.748,0.547
106518,1755606432511,22.92,53.85,-14.01,786,777,778,365,863,34.48275862068966,-0.389,0.75,0.547
106548,1755606432540,22.92,53.86,-14.0,787,775,777,358,876,33.333333333333336,-0.388,0.749,0.548
106577,1755606432569,22.97,53.9,-14.04,789,778,778,403,869,34.48275862068966,-0.39,0.75,0.549
106606,1755606432599,22.97,53.92,-14.01,785,773,782,363,861,34.48275862068966,-0.391,0.749,0.547
106636,1755606432629,22.98,53.88,-13.99,787,775,781,335,867,33.333333333333336,-0.39,0.749,0.546
106665,1755606432658,22.99,53.88,-13.99,787,774,774,377,868,34.48275862068966,-0.388,0.75,0.546
106694,1755606432687,23.0,53.91,-14.0,782,768,781,419,863,34.48275862068966,-0.387,0.748,0.545
106724,1755606432716,23.0,53.91,-14.02,786,779,781,381,866,33.333333333333336,-0.389,0.75,0.545
106753,1755606432746,23.03,53.92,-14.05,784,769,782,336,869,34.48275862068966,-0.389,0.752,0.545
106783,1755606432775,23.05,53.95,-14.1,786,771,782,360,863,33.333333333333336,-0.387,0.749,0.542
106812,1755606432805,23.1,53.88,-14.22,783,777,776,422,867,34.48275862068966,-0.389,0.745,0.538
106871,1755606432864,23.26,53.56,-14.5,781,781,780,356,862,34.48275862068966,-0.396,0.747,0.548
106891,1755606432884,23.29,53.56,-14.5,788,769,781,416,868,50.0,-0.4,0.75,0.557
106921,1755606432913,23.3,53.62,-14.46,782,770,783,368,866,33.333333333333336,-0.396,0.75,0.553
106950,1755606432943,23.3,53.6,-14.46,785,779,784,370,861,34.48275862068966,-0.392,0.749,0.548
106980,1755606432972,23.21,53.61,-14.38,785,776,776,404,867,33.333333333333336,-0.392,0.748,0.549
107127,1755606433119,23.14,53.67,-14.41,782,779,781,406,859,33.333333333333336,-0.392,0.743,0.55
107156,1755606433149,23.12,53.71,-14.42,788,774,777,384,869,34.48275862068966,-0.393,0.747,0.553
107186,1755606433179,23.14,53.78,-14.46,785,775,779,339,866,33.333333333333336,-0.391,0.748,0.551
107215,1755606433208,23.19,53.8,-14.56,783,779,779,371,859,34.48275862068966,-0.394,0.745,0.544
107245,1755606433238,23.18,53.73,-14.54,783,781,779,415,862,33.333333333333336,-0.399,0.742,0.545
107304,1755606433297,23.15,53.68,-14.43,786,778,780,357,864,33.333333333333336,-0.397,0.747,0.551
107333,1755606433326,23.17,53.68,-14.47,785,776,776,377,866,34.48275862068966,-0.395,0.745,0.552
107363,1755606433356,23.14,53.7,-14.45,788,776,779,430,871,33.333333333333336,-0.392,0.747,0.553
107392,1755606433385,23.12,53.73,-14.48,784,781,780,414,871,34.48275862068966,-0.389,0.746,0.555
107422,1755606433415,23.14,53.71,-14.57,786,776,780,363,864,33.333333333333336,-0.39,0.746,0.55
107452,1755606433444,23.07,53.74,-14.57,782,773,778,354,864,33.333333333333336,-0.393,0.746,0.549
107481,1755606433474,23.09,53.68,-14.62,781,781,779,387,863,34.48275862068966,-0.395,0.744,0.551
107510,1755606433503,23.14,53.71,-14.65,782,778,781,405,863,34.48275862068966,-0.397,0.747,0.551
107540,1755606433532,23.16,53.76,-14.67,781,776,777,379,866,33.333333333333336,-0.397,0.745,0.549
107569,1755606433562,23.15,53.71,-14.65,783,780,780,334,863,34.48275862068966,-0.396,0.744,0.549
107599,1755606433591,23.13,53.7,-14.64,784,774,780,376,867,33.333333333333336,-0.394,0.743,0.55
107628,1755606433621,23.14,53.73,-14.65,783,778,778,414,861,34.48275862068966,-0.396,0.745,0.552
107658,1755606433650,23.15,53.77,-14.65,784,775,783,383,867,33.333333333333336,-0.397,0.746,0.551
107687,1755606433680,23.16,53.74,-14.67,781,774,775,343,863,34.48275862068966,-0.397,0.744,0.551
107716,1755606433709,23.16,53.74,-14.63,790,775,778,360,865,34.48275862068966,-0.397,0.744,0.551
107746,1755606433738,23.14,53.76,-14.57,784,773,777,417,865,33.333333333333336,-0.397,0.745,0.551
107775,1755606433768,23.17,53.77,-14.58,782,779,780,403,863,34.48275862068966,-0.396,0.741,0.55
107864,1755606433856,23.18,53.77,-14.56,785,776,779,392,861,33.333333333333336,-0.399,0.742,0.552
107923,1755606433916,23.22,53.82,-14.46,788,774,780,389,863,33.333333333333336,-0.397,0.743,0.553
107952,1755606433945,23.24,53.86,-14.43,783,777,775,359,864,34.48275862068966,-0.394,0.745,0.551
107982,1755606433975,23.24,53.84,-14.42,782,776,775,379,863,33.333333333333336,-0.392,0.745,0.549
108011,1755606434004,23.25,53.83,-14.41,784,769,775,410,862,34.48275862068966,-0.392,0.746,0.549
108041,1755606434034,23.26,53.83,-14.4,789,770,781,404,870,33.333333333333336,-0.393,0.748,0.548
108071,1755606434063,23.27,53.86,-14.38,786,773,783,354,861,33.333333333333336,-0.393,0.749,0.547
108100,1755606434093,23.27,53.84,-14.37,787,769,778,368,863,34.48275862068966,-0.392,0.749,0.546
108129,1755606434122,23.27,53.82,-14.37,782,776,781,419,861,34.48275862068966,-0.391,0.748,0.548
108188,1755606434181,23.26,53.9,-14.35,785,774,780,369,865,34.48275862068966,-0.39,0.75,0.548
108218,1755606434211,23.25,53.8,-14.39,785,772,782,366,867,33.333333333333336,-0.389,0.748,0.544
108248,1755606434240,23.18,53.77,-14.35,785,777,782,414,867,33.333333333333336,-0.391,0.749,0.55
108277,1755606434270,23.22,53.82,-14.35,782,777,776,422,865,34.48275862068966,-0.393,0.751,0.553
108365,1755606434358,23.19,53.89,-14.26,787,775,784,365,869,34.48275862068966,-0.387,0.747,0.543
108394,1755606434387,23.18,53.83,-14.3,785,780,779,405,866,34.48275862068966,-0.387,0.75,0.544
108424,1755606434416,23.14,53.85,-14.3,782,780,782,392,862,33.333333333333336,-0.39,0.752,0.547
108453,1755606434446,23.16,53.91,-14.32,786,775,781,336,863,34.48275862068966,-0.39,0.75,0.548
108483,1755606434475,23.14,53.91,-14.31,786,768,781,349,862,33.333333333333336,-0.39,0.75,0.545
108541,1755606434534,23.07,53.85,-14.24,787,775,778,399,869,34.48275862068966,-0.388,0.751,0.547
108571,1755606434563,23.09,53.9,-14.28,788,777,782,362,862,33.333333333333336,-0.388,0.752,0.55
108600,1755606434593,23.11,53.95,-14.31,785,778,781,357,865,34.48275862068966,-0.389,0.75,0.549
108630,1755606434623,23.09,53.92,-14.3,788,776,779,407,863,33.333333333333336,-0.388,0.747,0.545
108689,1755606434682,23.08,53.9,-14.28,786,779,776,369,861,33.333333333333336,-0.389,0.751,0.548
108719,1755606434711,23.06,53.92,-14.27,782,781,780,342,865,33.333333333333336,-0.386,0.75,0.549
108836,1755606434829,23.04,53.88,-14.41,783,781,778,353,867,34.48275862068966,-0.385,0.753,0.553
108866,1755606434859,23.0,53.89,-14.39,785,771,782,373,864,33.333333333333336,-0.383,0.751,0.549
108896,1755606434888,22.99,53.88,-14.43,783,775,776,403,861,33.333333333333336,-0.384,0.756,0.547
108955,1755606434947,22.95,54.03,-14.49,783,776,775,321,860,33.333333333333336,-0.39,0.754,0.547
108984,1755606434977,22.95,54.04,-14.52,785,772,781,330,869,34.48275862068966,-0.394,0.749,0.544
109014,1755606435006,22.95,53.98,-14.49,784,777,778,403,864,33.333333333333336,-0.397,0.748,0.544
109043,1755606435036,22.95,53.99,-14.42,787,776,780,408,865,34.48275862068966,-0.395,0.749,0.549
109072,1755606435065,22.97,54.04,-14.39,782,776,780,370,862,34.48275862068966,-0.392,0.752,0.55
109102,1755606435095,22.97,54.09,-14.4,788,779,780,362,860,33.333333333333336,-0.388,0.752,0.548
109122,1755606435115,22.97,54.08,-14.42,788,770,779,405,865,50.0,-0.386,0.751,0.546
109152,1755606435144,22.95,54.06,-14.42,786,775,781,336,861,33.333333333333336,-0.387,0.751,0.544
109181,1755606435174,22.93,54.07,-14.38,781,778,777,376,867,34.48275862068966,-0.388,0.751,0.544
109211,1755606435203,22.93,54.1,-14.37,785,777,779,409,867,33.333333333333336,-0.388,0.753,0.546
109240,1755606435233,22.97,54.16,-14.38,788,774,781,368,868,34.48275862068966,-0.389,0.754,0.549
109270,1755606435263,23.0,54.21,-14.36,787,776,780,343,867,33.333333333333336,-0.386,0.751,0.546
109299,1755606435292,23.0,54.21,-14.34,788,776,783,362,866,34.48275862068966,-0.384,0.75,0.543
109329,1755606435321,22.99,54.2,-14.32,786,775,782,375,864,33.333333333333336,-0.384,0.751,0.546
109358,1755606435351,23.02,54.22,-14.33,786,776,779,387,867,34.48275862068966,-0.385,0.755,0.548
109388,1755606435380,23.03,54.22,-14.37,787,777,781,338,864,33.333333333333336,-0.383,0.753,0.546
109417,1755606435409,23.03,54.19,-14.36,781,777,780,341,864,34.48275862068966,-0.382,0.75,0.549
109446,1755606435439,23.04,54.32,-14.32,786,772,782,390,867,34.48275862068966,-0.381,0.756,0.551
109476,1755606435468,23.09,54.42,-14.36,785,775,779,406,863,33.333333333333336,-0.382,0.757,0.545
109505,1755606435498,23.1,54.43,-14.38,787,778,776,349,866,34.48275862068966,-0.384,0.754,0.536
109535,1755606435528,23.05,54.38,-14.39,788,779,781,354,867,33.333333333333336,-0.387,0.754,0.531
109564,1755606435557,23.0,54.35,-14.4,784,774,779,351,871,34.48275862068966,-0.391,0.755,0.533
109594,1755606435586,22.98,54.4,-14.39,787,778,777,392,870,33.333333333333336,-0.392,0.756,0.539
109623,1755606435616,22.98,54.46,-14.39,786,775,779,361,862,34.48275862068966,-0.39,0.756,0.541
109652,1755606435645,22.96,54.42,-14.39,786,770,783,333,861,34.48275862068966,-0.386,0.753,0.537
109682,1755606435675,22.94,54.38,-14.41,783,770,779,371,865,33.333333333333336,-0.385,0.755,0.537
109741,1755606435733,22.93,54.43,-14.45,784,775,776,393,858,33.333333333333336,-0.387,0.757,0.542
109770,1755606435763,22.92,54.42,-14.46,788,776,780,315,868,34.48275862068966,-0.386,0.757,0.541
109800,1755606435792,22.92,54.45,-14.46,786,777,774,359,862,33.333333333333336,-0.387,0.757,0.542
109829,1755606435822,22.94,54.45,-14.49,787,774,775,399,864,34.48275862068966,-0.387,0.758,0.54
