timestamp_ms,recv_timestamp_ms,pitch,roll,yaw,flex1,flex2,flex3,flex4,flex5,sampling_hz,accel_x,accel_y,accel_z
171448,1755606498161,15.58,49.36,-18.27,809,776,776,426,882,33.333333333333336,-0.264,0.74,0.631
171477,1755606498163,15.58,49.42,-18.24,808,774,775,353,877,34.48275862068966,-0.265,0.741,0.633
171507,1755606498165,15.58,49.45,-18.24,806,774,777,347,881,33.333333333333336,-0.263,0.742,0.631
171536,1755606498167,15.57,49.47,-18.24,808,774,776,374,883,34.48275862068966,-0.261,0.74,0.63
171566,1755606498169,15.58,49.48,-18.24,814,769,772,392,878,33.333333333333336,-0.262,0.74,0.633
171595,1755606498171,15.62,49.56,-18.27,809,774,776,340,878,34.48275862068966,-0.263,0.742,0.633
171624,1755606498173,15.68,49.65,-18.32,810,774,770,315,877,34.48275862068966,-0.266,0.744,0.63
171654,1755606498175,15.64,49.61,-18.29,811,773,776,377,878,33.333333333333336,-0.265,0.74,0.624
171684,1755606498177,15.6,49.57,-18.25,808,776,770,424,881,33.333333333333336,-0.263,0.737,0.626
171713,1755606498179,15.59,49.57,-18.22,810,773,773,386,880,34.48275862068966,-0.264,0.74,0.632
171743,1755606498181,15.63,49.69,-18.25,808,772,777,335,880,33.333333333333336,-0.264,0.746,0.631
171772,1755606498183,15.65,49.66,-18.29,811,776,775,358,880,34.48275862068966,-0.263,0.741,0.627
171801,1755606498185,15.66,49.66,-18.3,811,769,778,435,882,34.48275862068966,-0.263,0.738,0.626
171831,1755606498188,15.67,49.67,-18.28,806,774,775,418,884,33.333333333333336,-0.267,0.743,0.628
171890,1755606498191,15.73,49.74,-18.27,809,769,775,349,878,33.333333333333336,-0.266,0.743,0.628
171910,1755606498193,15.75,49.8,-18.27,807,780,770,388,882,50.0,-0.264,0.746,0.627
171940,1755606498196,15.78,49.87,-18.29,810,773,770,367,880,33.333333333333336,-0.263,0.746,0.624
171969,1755606498197,15.77,49.83,-18.27,811,774,772,433,882,34.48275862068966,-0.265,0.743,0.622
171999,1755606498200,15.74,49.85,-18.24,810,770,774,416,877,33.333333333333336,-0.265,0.742,0.626
172028,1755606498201,15.75,49.94,-18.24,804,778,774,382,879,34.48275862068966,-0.266,0.746,0.624
172058,1755606498204,15.76,49.94,-18.25,810,777,773,345,882,33.333333333333336,-0.264,0.741,0.619
172088,1755606498206,15.73,49.82,-18.24,809,775,773,379,879,33.333333333333336,-0.265,0.74,0.62
172176,1755606498212,15.67,49.8,-18.22,804,772,775,350,875,33.333333333333336,-0.265,0.744,0.622
172205,1755606498214,15.7,49.86,-18.23,803,776,774,354,883,34.48275862068966,-0.265,0.746,0.625
172235,1755606498229,15.69,49.92,-18.23,808,768,777,413,883,33.333333333333336,-0.265,0.748,0.624
172265,1755606498259,15.74,49.97,-18.29,810,772,772,412,879,33.333333333333336,-0.265,0.747,0.623
172295,1755606498288,15.76,49.97,-18.3,809,768,771,353,873,33.333333333333336,-0.266,0.746,0.624
172324,1755606498318,15.74,49.95,-18.29,808,774,769,342,875,34.48275862068966,-0.267,0.748,0.62
172354,1755606498348,15.71,49.86,-18.3,806,777,773,388,880,33.333333333333336,-0.264,0.745,0.618
172374,1755606498367,15.73,49.81,-18.35,807,775,774,352,881,50.0,-0.265,0.745,0.621
172433,1755606498427,15.7,49.71,-18.37,808,776,773,376,878,33.333333333333336,-0.264,0.745,0.625
172462,1755606498455,15.71,49.72,-18.41,808,774,776,357,881,34.48275862068966,-0.265,0.748,0.627
172491,1755606498485,15.75,49.79,-18.44,807,775,774,338,881,34.48275862068966,-0.267,0.747,0.626
172521,1755606498514,15.77,49.79,-18.45,807,777,772,395,876,33.333333333333336,-0.268,0.744,0.623
172550,1755606498544,15.78,49.64,-18.48,810,780,773,414,877,34.48275862068966,-0.268,0.739,0.622
172580,1755606498573,15.8,49.69,-18.46,804,771,774,391,882,33.333333333333336,-0.271,0.744,0.628
172609,1755606498603,15.85,49.77,-18.49,808,779,774,353,876,34.48275862068966,-0.269,0.747,0.627
172639,1755606498632,15.94,49.63,-18.61,809,779,769,372,887,33.333333333333336,-0.268,0.745,0.62
172698,1755606498691,15.88,49.62,-18.59,808,779,774,398,877,33.333333333333336,-0.271,0.743,0.625
172727,1755606498721,15.91,49.62,-18.62,808,775,775,335,881,34.48275862068966,-0.271,0.747,0.624
172757,1755606498751,15.96,49.55,-18.69,810,778,769,337,879,33.333333333333336,-0.27,0.743,0.623
172787,1755606498780,15.96,49.57,-18.67,804,775,775,400,881,33.333333333333336,-0.272,0.744,0.624
172816,1755606498809,15.95,49.6,-18.66,802,779,775,417,873,34.48275862068966,-0.273,0.745,0.623
172845,1755606498839,15.96,49.64,-18.64,809,776,774,349,883,34.48275862068966,-0.271,0.74,0.627
172875,1755606498868,16.0,49.71,-18.64,809,777,770,337,876,33.333333333333336,-0.272,0.738,0.627
172904,1755606498898,16.0,49.72,-18.61,808,776,774,381,880,34.48275862068966,-0.271,0.738,0.623
172934,1755606498927,15.99,49.75,-18.57,808,774,772,420,881,33.333333333333336,-0.272,0.741,0.624
172963,1755606498956,15.97,49.76,-18.55,803,770,775,377,878,34.48275862068966,-0.272,0.741,0.621
172992,1755606498986,15.95,49.71,-18.51,808,774,775,323,877,34.48275862068966,-0.271,0.739,0.623
173051,1755606499045,16.02,49.77,-18.5,806,779,774,417,881,34.48275862068966,-0.271,0.743,0.623
173081,1755606499074,16.0,49.75,-18.48,805,779,776,403,878,33.333333333333336,-0.272,0.74,0.622
173110,1755606499104,15.98,49.73,-18.48,803,773,774,339,881,34.48275862068966,-0.273,0.74,0.624
173140,1755606499133,16.0,49.78,-18.46,807,773,773,341,877,33.333333333333336,-0.273,0.743,0.626
173169,1755606499163,16.03,49.82,-18.47,807,768,775,416,881,34.48275862068966,-0.272,0.743,0.625
173228,1755606499222,15.98,49.77,-18.48,810,774,777,364,873,34.48275862068966,-0.268,0.742,0.625
173258,1755606499251,15.97,49.76,-18.51,803,773,774,341,881,33.333333333333336,-0.267,0.743,0.627
173287,1755606499281,15.97,49.79,-18.53,807,777,771,386,882,34.48275862068966,-0.27,0.743,0.63
173346,1755606499340,15.99,49.77,-18.58,807,775,773,387,888,34.48275862068966,-0.272,0.74,0.625
173376,1755606499369,15.97,49.7,-18.54,807,775,774,342,876,33.333333333333336,-0.274,0.738,0.627
173405,1755606499399,16.0,49.75,-18.55,808,773,777,373,882,34.48275862068966,-0.275,0.743,0.63
173435,1755606499428,16.07,49.86,-18.54,810,774,776,416,879,33.333333333333336,-0.274,0.744,0.628
173464,1755606499458,16.12,49.95,-18.51,804,772,776,402,879,34.48275862068966,-0.272,0.745,0.624
173494,1755606499488,16.11,49.98,-18.5,808,774,776,339,874,33.333333333333336,-0.27,0.744,0.617
173524,1755606499517,16.07,49.97,-18.49,805,775,777,344,882,33.333333333333336,-0.27,0.744,0.617
173553,1755606499547,16.03,49.96,-18.51,809,775,777,394,879,34.48275862068966,-0.267,0.746,0.617
173583,1755606499576,16.04,49.91,-18.6,805,772,774,420,879,33.333333333333336,-0.267,0.745,0.615
173612,1755606499605,15.99,49.83,-18.61,808,779,773,364,882,34.48275862068966,-0.269,0.743,0.616
173641,1755606499635,15.96,49.73,-18.67,807,773,777,340,879,34.48275862068966,-0.268,0.743,0.625
173671,1755606499665,16.02,49.71,-18.76,808,773,774,348,878,33.333333333333336,-0.27,0.744,0.635
173701,1755606499694,16.02,49.86,-18.76,803,777,774,412,882,33.333333333333336,-0.271,0.744,0.636
173730,1755606499724,16.05,49.89,-18.83,810,777,774,377,882,34.48275862068966,-0.268,0.741,0.626
173760,1755606499753,16.01,49.84,-18.82,809,774,771,333,875,33.333333333333336,-0.272,0.737,0.623
173789,1755606499783,15.96,49.78,-18.78,805,776,769,350,881,34.48275862068966,-0.274,0.738,0.624
173819,1755606499812,15.99,49.79,-18.81,809,774,777,415,880,33.333333333333336,-0.276,0.743,0.624
173848,1755606499841,15.99,49.8,-18.79,803,772,774,409,880,34.48275862068966,-0.277,0.744,0.622
173907,1755606499900,15.96,49.83,-18.79,807,772,774,363,879,33.333333333333336,-0.272,0.741,0.622
173936,1755606499930,15.94,49.77,-18.8,808,774,775,416,875,34.48275862068966,-0.274,0.737,0.63
173966,1755606499959,15.95,49.81,-18.78,809,776,775,424,881,33.333333333333336,-0.275,0.738,0.633
174024,1755606500018,16.0,49.87,-18.77,808,774,776,308,877,34.48275862068966,-0.27,0.74,0.62
174054,1755606500047,16.01,49.8,-18.8,806,776,777,354,888,33.333333333333336,-0.272,0.743,0.618
174083,1755606500077,15.97,49.81,-18.77,807,771,776,348,879,34.48275862068966,-0.273,0.741,0.625
174112,1755606500106,16.01,49.84,-18.75,809,775,773,338,884,34.48275862068966,-0.275,0.743,0.629
174142,1755606500135,16.01,49.85,-18.72,806,776,776,310,885,33.333333333333336,-0.274,0.744,0.629
174171,1755606500166,16.02,49.89,-18.73,806,775,773,358,874,34.48275862068966,-0.271,0.745,0.625
174192,1755606500185,16.04,49.91,-18.76,807,780,771,346,881,47.61904761904762,-0.271,0.745,0.624
174221,1755606500214,15.95,50.05,-18.69,807,777,775,374,876,34.48275862068966,-0.274,0.746,0.624
174250,1755606500244,15.9,50.15,-18.63,808,773,774,406,878,34.48275862068966,-0.275,0.745,0.623
174280,1755606500273,15.93,50.1,-18.6,811,775,771,383,880,33.333333333333336,-0.277,0.74,0.618
174309,1755606500303,15.85,49.93,-18.52,802,774,775,325,881,34.48275862068966,-0.275,0.739,0.614
174339,1755606500332,15.74,49.77,-18.45,805,773,775,360,880,33.333333333333336,-0.272,0.744,0.621
174368,1755606500362,15.73,49.76,-18.43,805,779,773,417,882,34.48275862068966,-0.265,0.743,0.633
174397,1755606500391,15.79,49.83,-18.45,805,778,775,358,881,34.48275862068966,-0.263,0.745,0.632
174456,1755606500450,15.81,49.89,-18.55,807,768,774,338,878,34.48275862068966,-0.263,0.746,0.624
174515,1755606500509,15.8,49.86,-18.56,806,774,777,392,879,34.48275862068966,-0.267,0.743,0.62
174545,1755606500539,15.79,49.8,-18.57,804,776,777,348,875,33.333333333333336,-0.268,0.744,0.623
174575,1755606500568,15.8,49.84,-18.59,805,776,775,326,885,33.333333333333336,-0.267,0.745,0.625
174634,1755606500628,15.81,49.81,-18.64,806,774,771,425,876,33.333333333333336,-0.265,0.743,0.627
174664,1755606500657,15.79,49.82,-18.65,804,778,775,382,878,33.333333333333336,-0.264,0.741,0.628
174693,1755606500687,15.8,49.84,-18.68,806,767,773,340,881,34.48275862068966,-0.267,0.742,0.63
174782,1755606500775,15.79,49.83,-18.69,803,772,773,426,876,33.333333333333336,-0.269,0.74,0.626
174811,1755606500804,15.79,49.8,-18.68,805,768,769,371,877,34.48275862068966,-0.269,0.74,0.629
174840,1755606500834,15.8,49.82,-18.68,810,774,773,346,874,34.48275862068966,-0.267,0.742,0.63
174870,1755606500863,15.81,49.84,-18.69,809,771,776,414,877,33.333333333333336,-0.266,0.742,0.627
174899,1755606500893,15.79,49.82,-18.69,805,767,773,431,881,34.48275862068966,-0.264,0.74,0.627
174929,1755606500922,15.79,49.75,-18.71,807,773,776,334,881,33.333333333333336,-0.265,0.738,0.63
174958,1755606500952,15.79,49.77,-18.71,808,777,777,312,876,34.48275862068966,-0.267,0.74,0.631
174988,1755606500981,15.81,49.75,-18.73,806,779,770,368,880,33.333333333333336,-0.265,0.739,0.631
175017,1755606501011,15.84,49.76,-18.76,807,775,776,411,880,34.48275862068966,-0.266,0.74,0.631
175047,1755606501040,15.83,49.81,-18.76,804,775,771,365,879,33.333333333333336,-0.266,0.741,0.629
175076,1755606501070,15.81,49.8,-18.77,805,779,776,338,874,34.48275862068966,-0.266,0.739,0.628
175106,1755606501099,15.81,49.74,-18.77,806,774,777,362,875,33.333333333333336,-0.266,0.739,0.628
175135,1755606501129,15.82,49.76,-18.79,801,779,777,425,883,34.48275862068966,-0.267,0.741,0.629
175165,1755606501158,15.83,49.77,-18.81,807,772,777,397,880,33.333333333333336,-0.269,0.741,0.631
175194,1755606501188,15.85,49.8,-18.82,807,771,776,354,881,34.48275862068966,-0.269,0.741,0.629
175224,1755606501217,15.83,49.81,-18.8,807,767,771,346,876,33.333333333333336,-0.268,0.739,0.625
175253,1755606501247,15.8,49.74,-18.8,806,774,776,375,881,34.48275862068966,-0.268,0.739,0.624
175283,1755606501276,15.79,49.73,-18.81,806,771,771,403,882,33.333333333333336,-0.269,0.741,0.628
175312,1755606501306,15.8,49.74,-18.81,809,774,771,363,876,34.48275862068966,-0.269,0.741,0.63
175342,1755606501335,15.82,49.73,-18.83,801,773,774,340,880,33.333333333333336,-0.267,0.74,0.631
175401,1755606501394,15.89,49.81,-18.94,809,775,777,404,879,33.333333333333336,-0.266,0.74,0.63
175430,1755606501424,15.92,49.85,-18.98,804,779,775,391,880,34.48275862068966,-0.269,0.741,0.626
175460,1755606501453,15.94,49.79,-19.01,805,775,777,324,885,33.333333333333336,-0.271,0.738,0.625
175489,1755606501484,15.99,49.79,-19.01,804,775,770,355,877,34.48275862068966,-0.273,0.738,0.628
175510,1755606501503,15.99,49.81,-19.0,802,775,778,359,877,47.61904761904762,-0.275,0.741,0.629
175539,1755606501532,16.01,49.88,-19.0,802,777,772,361,877,34.48275862068966,-0.273,0.742,0.628
175568,1755606501562,16.04,49.9,-18.99,806,779,775,402,879,34.48275862068966,-0.274,0.741,0.628
175598,1755606501592,16.03,49.92,-18.96,808,779,777,401,881,33.333333333333336,-0.273,0.74,0.626
175627,1755606501621,16.0,49.86,-18.95,806,777,773,367,875,34.48275862068966,-0.274,0.739,0.625
175686,1755606501680,16.01,49.93,-18.93,805,774,773,437,879,34.48275862068966,-0.273,0.741,0.629
175716,1755606501709,16.02,49.94,-18.93,808,774,773,454,880,33.333333333333336,-0.274,0.741,0.625
175745,1755606501738,15.99,49.93,-18.92,808,777,777,399,882,34.48275862068966,-0.274,0.74,0.624
175774,1755606501768,15.99,49.9,-18.94,807,771,772,357,874,34.48275862068966,-0.275,0.74,0.626
175804,1755606501797,16.01,49.95,-18.88,804,776,772,400,877,33.333333333333336,-0.274,0.741,0.628
175833,1755606501827,15.99,49.9,-18.89,800,774,778,448,883,34.48275862068966,-0.271,0.742,0.623
175863,1755606501857,16.01,49.86,-18.93,805,772,774,407,883,33.333333333333336,-0.271,0.739,0.627
175893,1755606501886,16.0,49.88,-18.91,802,775,774,352,883,33.333333333333336,-0.272,0.74,0.627
175922,1755606501916,16.02,49.89,-18.97,806,770,777,359,875,34.48275862068966,-0.271,0.74,0.624
175952,1755606501946,15.99,49.85,-18.95,802,780,774,400,880,33.333333333333336,-0.271,0.739,0.626
175982,1755606501975,15.98,49.87,-18.93,805,767,775,409,879,33.333333333333336,-0.271,0.74,0.625
176011,1755606502005,15.97,49.84,-18.97,807,779,775,315,882,34.48275862068966,-0.27,0.741,0.624
176041,1755606502034,15.97,49.82,-18.99,803,780,773,330,881,33.333333333333336,-0.273,0.74,0.627
176070,1755606502064,15.96,49.85,-18.97,806,774,775,378,876,34.48275862068966,-0.275,0.741,0.627
176100,1755606502094,15.94,49.86,-18.93,804,773,774,423,877,33.333333333333336,-0.272,0.739,0.626
176130,1755606502123,15.95,49.81,-18.96,804,776,773,364,884,33.333333333333336,-0.271,0.74,0.626
176188,1755606502182,15.96,49.86,-18.95,806,775,770,369,879,34.48275862068966,-0.273,0.741,0.628
176218,1755606502211,15.97,49.84,-18.98,806,773,775,417,875,33.333333333333336,-0.271,0.742,0.628
176247,1755606502241,15.99,49.84,-19.02,803,776,770,383,879,34.48275862068966,-0.268,0.74,0.626
176277,1755606502270,16.04,49.83,-19.08,808,775,770,329,875,33.333333333333336,-0.27,0.741,0.625
176306,1755606502300,16.04,49.84,-19.1,801,779,775,348,873,34.48275862068966,-0.272,0.741,0.625
176336,1755606502329,16.02,49.78,-19.09,809,775,770,408,880,33.333333333333336,-0.27,0.737,0.626
176365,1755606502359,16.02,49.78,-19.13,806,778,774,420,877,34.48275862068966,-0.274,0.739,0.627
176395,1755606502389,16.02,49.84,-19.13,807,777,775,367,879,33.333333333333336,-0.273,0.741,0.624
176425,1755606502419,16.03,49.83,-19.15,806,776,774,344,877,33.333333333333336,-0.273,0.741,0.621
176454,1755606502448,16.0,49.75,-19.16,805,773,770,386,876,34.48275862068966,-0.273,0.739,0.622
176484,1755606502478,16.0,49.73,-19.19,804,779,774,421,879,33.333333333333336,-0.276,0.739,0.628
176514,1755606502508,16.01,49.74,-19.19,808,778,775,396,869,33.333333333333336,-0.278,0.74,0.629
176543,1755606502537,16.03,49.74,-19.2,805,773,776,303,873,34.48275862068966,-0.277,0.74,0.628
176573,1755606502566,16.02,49.73,-19.18,805,776,777,324,880,33.333333333333336,-0.275,0.739,0.625
176602,1755606502596,16.0,49.72,-19.19,805,772,770,391,879,34.48275862068966,-0.276,0.741,0.625
176632,1755606502625,16.01,49.72,-19.21,806,779,775,350,881,33.333333333333336,-0.276,0.741,0.627
176661,1755606502655,16.03,49.75,-19.21,801,774,777,309,878,34.48275862068966,-0.276,0.741,0.627
176691,1755606502684,16.05,49.73,-19.22,807,768,773,328,877,33.333333333333336,-0.274,0.74,0.625
176720,1755606502714,16.04,49.69,-19.26,809,778,779,375,877,34.48275862068966,-0.272,0.74,0.624
176750,1755606502743,16.02,49.72,-19.25,806,771,776,393,875,33.333333333333336,-0.274,0.741,0.627
176779,1755606502773,16.04,49.82,-19.27,804,773,778,336,877,34.48275862068966,-0.276,0.742,0.629
176809,1755606502802,16.05,49.86,-19.27,806,770,776,307,883,33.333333333333336,-0.277,0.739,0.624
176838,1755606502832,16.06,49.8,-19.26,808,769,773,300,879,34.48275862068966,-0.277,0.735,0.624
176868,1755606502861,16.05,49.83,-19.22,807,779,776,348,877,33.333333333333336,-0.278,0.741,0.625
176897,1755606502891,16.04,49.87,-19.18,805,773,773,359,877,34.48275862068966,-0.275,0.744,0.622
176956,1755606502950,16.03,49.83,-19.2,805,774,774,344,878,34.48275862068966,-0.272,0.743,0.623
176986,1755606502979,16.03,49.9,-19.19,805,773,776,420,875,33.333333333333336,-0.274,0.743,0.628
177045,1755606503039,16.09,50.0,-19.19,801,774,774,314,882,33.333333333333336,-0.273,0.74,0.624
177075,1755606503068,16.07,49.97,-19.19,809,779,773,310,882,33.333333333333336,-0.271,0.74,0.625
177104,1755606503097,16.08,49.98,-19.22,802,775,774,379,877,34.48275862068966,-0.271,0.743,0.629
177133,1755606503127,16.09,50.03,-19.25,806,774,774,416,877,34.48275862068966,-0.271,0.743,0.627
177163,1755606503156,16.13,50.02,-19.28,806,780,769,368,874,33.333333333333336,-0.274,0.741,0.621
177192,1755606503186,16.1,49.95,-19.29,801,775,775,328,879,34.48275862068966,-0.273,0.74,0.617
177251,1755606503245,16.05,49.97,-19.24,808,774,773,415,877,34.48275862068966,-0.274,0.741,0.625
177281,1755606503274,16.06,50.02,-19.24,806,778,775,405,873,33.333333333333336,-0.272,0.742,0.624
177310,1755606503304,16.04,49.99,-19.23,807,777,770,347,878,34.48275862068966,-0.272,0.74,0.625
177340,1755606503333,16.03,49.91,-19.23,807,780,771,352,874,33.333333333333336,-0.272,0.738,0.626
177369,1755606503363,16.05,49.94,-19.23,804,774,774,409,876,34.48275862068966,-0.273,0.741,0.626
177399,1755606503393,16.06,49.96,-19.21,807,773,778,413,878,33.333333333333336,-0.273,0.744,0.626
177419,1755606503413,16.04,50.0,-19.2,805,775,775,396,877,50.0,-0.27,0.744,0.625
177449,1755606503442,16.03,49.98,-19.22,807,774,775,394,876,33.333333333333336,-0.271,0.742,0.623
177478,1755606503471,16.0,49.99,-19.19,802,774,772,344,875,34.48275862068966,-0.272,0.739,0.623
177507,1755606503501,15.98,49.99,-19.15,804,777,773,326,879,34.48275862068966,-0.273,0.741,0.622
177537,1755606503531,15.97,49.94,-19.13,803,775,772,399,872,33.333333333333336,-0.272,0.742,0.623
177567,1755606503560,15.99,49.94,-19.16,806,774,776,431,875,33.333333333333336,-0.271,0.743,0.626
177655,1755606503649,16.0,49.95,-19.19,802,768,775,380,879,33.333333333333336,-0.272,0.74,0.625
177685,1755606503678,15.98,49.9,-19.2,805,773,776,440,879,33.333333333333336,-0.271,0.74,0.624
177714,1755606503708,15.97,49.89,-19.2,799,774,776,404,876,34.48275862068966,-0.272,0.742,0.628
177744,1755606503737,15.97,49.89,-19.2,801,772,775,342,877,33.333333333333336,-0.273,0.739,0.631
177773,1755606503767,16.01,49.48,-19.22,804,774,773,352,878,34.48275862068966,-0.272,0.738,0.626
177802,1755606503796,15.97,49.4,-19.2,800,775,770,398,876,34.48275862068966,-0.27,0.737,0.626
177832,1755606503826,15.93,49.45,-19.2,807,773,775,403,874,33.333333333333336,-0.271,0.743,0.627
177861,1755606503855,15.96,49.49,-19.22,802,775,774,350,876,34.48275862068966,-0.273,0.74,0.63
177891,1755606503884,16.0,49.52,-19.22,801,770,775,349,877,33.333333333333336,-0.275,0.741,0.627
177920,1755606503914,15.99,49.54,-19.2,798,776,776,402,877,34.48275862068966,-0.272,0.741,0.622
177950,1755606503943,15.96,49.5,-19.19,801,779,772,432,880,33.333333333333336,-0.269,0.741,0.618
177979,1755606503972,15.92,49.46,-19.2,804,775,773,370,875,34.48275862068966,-0.27,0.745,0.623
178008,1755606504002,15.94,49.5,-19.24,800,770,776,331,878,34.48275862068966,-0.269,0.741,0.63
178038,1755606504031,15.97,49.5,-19.28,805,779,771,383,877,33.333333333333336,-0.271,0.739,0.632
178067,1755606504061,15.99,49.5,-19.28,805,774,776,430,880,34.48275862068966,-0.273,0.739,0.63
178097,1755606504091,15.98,49.46,-19.28,801,773,777,395,884,33.333333333333336,-0.272,0.74,0.628
178126,1755606504120,15.99,49.47,-19.3,800,774,770,351,874,34.48275862068966,-0.272,0.741,0.624
178156,1755606504149,16.0,49.5,-19.32,799,773,779,376,878,33.333333333333336,-0.274,0.744,0.622
178185,1755606504179,15.97,49.42,-19.32,805,777,774,437,878,34.48275862068966,-0.273,0.741,0.621
178215,1755606504209,15.97,49.37,-19.34,803,778,776,408,881,33.333333333333336,-0.273,0.743,0.626
178245,1755606504238,15.95,49.42,-19.32,804,774,777,356,878,33.333333333333336,-0.269,0.746,0.629
178274,1755606504268,15.98,49.46,-19.39,805,769,776,348,878,34.48275862068966,-0.267,0.744,0.624
178304,1755606504297,15.99,49.4,-19.43,807,767,773,414,876,33.333333333333336,-0.27,0.737,0.621
178363,1755606504356,16.04,49.36,-19.42,808,778,777,362,869,33.333333333333336,-0.28,0.741,0.63
178392,1755606504386,16.14,49.41,-19.43,804,769,773,346,877,34.48275862068966,-0.278,0.741,0.63
178451,1755606504445,16.21,49.39,-19.5,799,773,775,411,878,34.48275862068966,-0.273,0.736,0.63
178481,1755606504474,16.28,49.43,-19.53,803,781,772,379,874,33.333333333333336,-0.276,0.738,0.635
178510,1755606504504,16.34,49.49,-19.56,802,773,775,333,876,34.48275862068966,-0.278,0.739,0.631
178540,1755606504533,16.36,49.42,-19.57,806,774,775,345,875,33.333333333333336,-0.278,0.739,0.621
178569,1755606504563,16.32,49.33,-19.57,803,767,773,412,876,34.48275862068966,-0.278,0.738,0.62
178598,1755606504592,16.33,49.41,-19.5,802,776,772,356,875,34.48275862068966,-0.281,0.744,0.617
178628,1755606504622,16.42,49.31,-19.54,803,775,774,336,876,33.333333333333336,-0.277,0.743,0.609
178658,1755606504652,16.34,49.13,-19.54,805,770,774,336,880,33.333333333333336,-0.279,0.735,0.616
178688,1755606504681,16.38,48.97,-19.6,803,770,774,371,878,33.333333333333336,-0.288,0.738,0.632
178717,1755606504710,16.45,49.02,-19.54,805,768,774,408,879,34.48275862068966,-0.282,0.738,0.633
178746,1755606504740,16.51,49.03,-19.53,805,773,769,375,878,34.48275862068966,-0.273,0.737,0.622
178776,1755606504769,16.46,48.84,-19.65,805,779,774,329,878,33.333333333333336,-0.27,0.736,0.623
178805,1755606504799,16.48,48.7,-19.79,804,774,772,372,876,34.48275862068966,-0.276,0.731,0.638
178835,1755606504828,16.51,48.74,-19.82,803,769,776,425,877,33.333333333333336,-0.283,0.733,0.644
178864,1755606504858,16.57,48.77,-19.89,802,770,771,403,875,34.48275862068966,-0.285,0.729,0.64
178894,1755606504887,16.62,48.75,-19.9,801,774,774,308,882,33.333333333333336,-0.286,0.724,0.64
178923,1755606504917,16.65,48.81,-19.89,807,774,776,334,884,34.48275862068966,-0.287,0.728,0.64
178953,1755606504947,16.65,48.81,-19.9,804,776,773,392,879,33.333333333333336,-0.286,0.729,0.636
178983,1755606504976,16.66,48.8,-19.92,801,776,772,396,877,33.333333333333336,-0.285,0.729,0.635
179042,1755606505035,16.67,48.84,-19.91,805,771,774,359,875,33.333333333333336,-0.288,0.73,0.628
179071,1755606505065,16.62,48.8,-19.92,801,779,777,404,878,34.48275862068966,-0.286,0.729,0.629
179101,1755606505095,16.67,48.85,-19.95,803,771,776,423,878,33.333333333333336,-0.288,0.728,0.635
179131,1755606505124,16.69,48.85,-19.92,804,776,770,389,874,33.333333333333336,-0.291,0.727,0.632
179160,1755606505154,16.66,48.8,-19.91,802,771,778,356,876,34.48275862068966,-0.286,0.726,0.631
179190,1755606505184,16.67,48.78,-19.93,803,773,777,359,880,33.333333333333336,-0.286,0.727,0.637
179219,1755606505213,16.69,48.82,-19.98,808,775,770,415,880,34.48275862068966,-0.288,0.726,0.634
179249,1755606505242,16.69,48.73,-19.98,801,773,777,422,878,33.333333333333336,-0.291,0.722,0.631
179307,1755606505301,16.66,48.8,-19.88,801,775,774,355,878,34.48275862068966,-0.289,0.728,0.636
179337,1755606505330,16.65,48.8,-19.9,803,778,776,410,880,33.333333333333336,-0.287,0.728,0.629
179366,1755606505360,16.62,48.73,-19.89,807,774,769,419,876,34.48275862068966,-0.288,0.726,0.632
179396,1755606505389,16.64,48.79,-19.87,803,775,777,357,874,33.333333333333336,-0.288,0.726,0.638
179425,1755606505419,16.65,48.86,-19.86,801,775,774,315,873,34.48275862068966,-0.288,0.728,0.636
179454,1755606505448,16.64,48.81,-19.86,803,773,772,337,881,34.48275862068966,-0.287,0.729,0.634
179484,1755606505478,16.64,48.85,-19.86,803,773,772,351,876,33.333333333333336,-0.282,0.729,0.638
179514,1755606505507,16.71,48.9,-19.93,802,773,776,340,879,33.333333333333336,-0.281,0.73,0.639
179543,1755606505537,16.74,48.9,-20.0,804,774,773,291,877,34.48275862068966,-0.282,0.73,0.633
179603,1755606505596,16.78,48.86,-20.15,807,771,774,384,881,33.333333333333336,-0.287,0.727,0.632
179632,1755606505625,16.84,48.91,-20.15,803,767,771,385,880,34.48275862068966,-0.293,0.727,0.632
179661,1755606505655,16.84,48.93,-20.09,802,774,773,342,882,34.48275862068966,-0.289,0.727,0.629
179691,1755606505685,16.4,48.95,-20.08,804,779,769,303,878,33.333333333333336,-0.286,0.73,0.63
179720,1755606505714,16.4,48.92,-20.1,802,778,776,385,875,34.48275862068966,-0.282,0.727,0.629
179750,1755606505743,16.42,48.87,-20.19,803,776,770,418,884,33.333333333333336,-0.285,0.729,0.632
179809,1755606505802,16.55,48.89,-20.28,805,775,775,347,877,33.333333333333336,-0.293,0.724,0.639
179838,1755606505832,16.52,48.91,-20.23,803,775,775,379,880,34.48275862068966,-0.288,0.726,0.63
179868,1755606505861,16.47,48.8,-20.29,804,775,769,406,876,33.333333333333336,-0.283,0.727,0.628
179897,1755606505891,16.44,48.81,-20.35,807,778,775,409,875,34.48275862068966,-0.285,0.728,0.635
179985,1755606505979,16.51,48.76,-20.52,805,770,771,398,874,34.48275862068966,-0.298,0.724,0.631
180015,1755606506009,16.52,48.74,-20.54,808,775,776,411,878,33.333333333333336,-0.299,0.723,0.631
180045,1755606506038,16.52,48.68,-20.57,802,778,776,371,881,33.333333333333336,-0.299,0.723,0.634
180074,1755606506067,16.57,48.67,-20.57,803,773,777,347,877,34.48275862068966,-0.3,0.723,0.64
180103,1755606506097,16.64,48.71,-20.58,805,774,770,397,880,34.48275862068966,-0.298,0.724,0.641
180133,1755606506126,16.68,48.67,-20.59,802,775,775,412,877,33.333333333333336,-0.297,0.722,0.637
180162,1755606506156,16.66,48.6,-20.58,803,769,772,366,876,34.48275862068966,-0.296,0.719,0.636
180192,1755606506185,16.66,48.64,-20.57,799,772,772,334,873,33.333333333333336,-0.298,0.723,0.637
180221,1755606506214,16.68,48.71,-20.56,802,778,780,401,870,34.48275862068966,-0.298,0.724,0.638
