timestamp_ms,recv_timestamp_ms,pitch,roll,yaw,flex1,flex2,flex3,flex4,flex5,sampling_hz,accel_x,accel_y,accel_z
197862,1755606524953,16.52,48.32,-21.66,798,776,771,356,874,33.333333333333336,-0.283,0.717,0.645
197891,1755606524955,16.52,48.31,-21.65,800,770,778,397,875,34.48275862068966,-0.282,0.719,0.647
197921,1755606524957,16.53,48.3,-21.67,802,775,772,429,872,33.333333333333336,-0.281,0.718,0.649
197950,1755606524959,16.54,48.26,-21.67,794,773,775,382,876,34.48275862068966,-0.281,0.716,0.649
197980,1755606524961,16.53,48.26,-21.68,797,769,771,338,869,33.333333333333336,-0.281,0.718,0.649
198009,1755606524963,16.51,48.24,-21.68,797,777,777,370,879,34.48275862068966,-0.28,0.72,0.648
198038,1755606524965,16.47,48.23,-21.68,798,774,776,417,873,34.48275862068966,-0.277,0.718,0.648
198068,1755606524967,16.49,48.27,-21.72,801,777,775,376,878,33.333333333333336,-0.282,0.716,0.648
198097,1755606524969,16.51,48.25,-21.73,800,774,776,331,872,34.48275862068966,-0.285,0.716,0.647
198127,1755606524971,16.52,48.23,-21.7,796,776,770,339,872,33.333333333333336,-0.284,0.717,0.648
198156,1755606524973,16.53,48.26,-21.69,801,779,774,396,873,34.48275862068966,-0.281,0.718,0.65
198186,1755606524975,16.56,48.24,-21.73,802,774,771,395,869,33.333333333333336,-0.28,0.719,0.649
198216,1755606524977,16.52,48.27,-21.7,800,776,775,371,870,33.333333333333336,-0.279,0.72,0.65
198245,1755606524979,16.52,48.29,-21.72,796,780,771,344,874,34.48275862068966,-0.278,0.719,0.648
198275,1755606524981,16.51,48.23,-21.74,800,772,774,410,873,33.333333333333336,-0.279,0.717,0.646
198304,1755606524983,16.47,48.16,-21.74,797,772,777,428,873,34.48275862068966,-0.281,0.717,0.646
198334,1755606524985,16.47,48.15,-21.75,800,779,770,381,871,33.333333333333336,-0.282,0.718,0.65
198363,1755606524987,16.48,48.19,-21.76,801,777,775,349,873,34.48275862068966,-0.281,0.717,0.652
198392,1755606524989,16.5,48.22,-21.78,799,775,775,381,877,34.48275862068966,-0.281,0.718,0.651
198422,1755606524991,16.48,48.22,-21.77,798,773,776,406,874,33.333333333333336,-0.281,0.717,0.649
198451,1755606524993,16.47,48.21,-21.77,799,775,776,391,875,34.48275862068966,-0.281,0.716,0.648
198481,1755606524995,16.47,48.19,-21.76,797,771,772,338,875,33.333333333333336,-0.282,0.716,0.65
198510,1755606524997,16.46,48.16,-21.75,802,770,775,361,872,34.48275862068966,-0.283,0.717,0.648
198540,1755606524999,16.46,48.11,-21.75,800,780,776,418,876,33.333333333333336,-0.283,0.716,0.649
198569,1755606525001,16.46,48.12,-21.74,800,777,778,421,876,34.48275862068966,-0.281,0.722,0.65
198599,1755606525003,16.46,48.12,-21.74,799,772,771,346,875,33.333333333333336,-0.28,0.72,0.65
198628,1755606525005,16.47,48.09,-21.76,801,772,770,342,874,34.48275862068966,-0.28,0.718,0.652
198658,1755606525007,16.47,48.14,-21.74,801,779,775,408,873,33.333333333333336,-0.281,0.718,0.653
198775,1755606525015,16.52,48.17,-21.72,800,773,773,386,874,34.48275862068966,-0.281,0.72,0.651
198805,1755606525018,16.55,48.2,-21.72,800,773,775,399,876,33.333333333333336,-0.279,0.72,0.651
198834,1755606525020,16.55,48.22,-21.72,797,779,771,373,869,34.48275862068966,-0.278,0.719,0.65
198864,1755606525022,16.56,48.24,-21.73,802,773,773,297,874,33.333333333333336,-0.278,0.718,0.649
198893,1755606525023,16.58,48.25,-21.75,800,767,771,330,872,34.48275862068966,-0.278,0.72,0.648
198923,1755606525026,16.56,48.22,-21.77,805,778,774,399,873,33.333333333333336,-0.279,0.718,0.646
198952,1755606525028,16.54,48.16,-21.76,801,779,777,354,872,34.48275862068966,-0.278,0.714,0.644
198982,1755606525029,16.54,48.15,-21.77,792,781,776,332,865,33.333333333333336,-0.279,0.718,0.648
199011,1755606525031,16.5,48.17,-21.77,798,772,774,350,873,34.48275862068966,-0.279,0.721,0.648
199041,1755606525035,16.51,48.2,-21.79,799,776,776,406,876,33.333333333333336,-0.28,0.717,0.648
199070,1755606525064,16.5,48.17,-21.78,807,767,769,416,877,34.48275862068966,-0.281,0.717,0.65
199100,1755606525094,16.51,48.16,-21.78,801,768,778,375,874,33.333333333333336,-0.281,0.718,0.648
199129,1755606525123,16.5,48.16,-21.78,800,776,774,352,873,34.48275862068966,-0.28,0.719,0.648
199159,1755606525153,16.47,48.13,-21.79,803,769,770,383,876,33.333333333333336,-0.279,0.716,0.651
199189,1755606525182,16.49,48.1,-21.82,796,774,776,418,877,33.333333333333336,-0.279,0.717,0.653
199218,1755606525212,16.5,48.15,-21.83,798,780,775,383,876,34.48275862068966,-0.279,0.718,0.652
199247,1755606525241,16.49,48.11,-21.85,801,776,776,335,877,34.48275862068966,-0.279,0.718,0.648
199277,1755606525271,16.45,48.06,-21.86,800,775,773,314,876,33.333333333333336,-0.278,0.718,0.648
199306,1755606525300,16.44,48.06,-21.88,800,775,777,398,873,34.48275862068966,-0.281,0.718,0.651
199335,1755606525329,16.45,48.08,-21.87,796,771,776,387,874,34.48275862068966,-0.283,0.717,0.653
199365,1755606525359,16.47,48.09,-21.86,799,772,770,301,874,33.333333333333336,-0.282,0.716,0.654
199394,1755606525388,16.5,48.1,-21.86,800,778,777,333,871,34.48275862068966,-0.279,0.717,0.65
199424,1755606525417,16.5,48.05,-21.87,799,769,778,399,880,33.333333333333336,-0.279,0.717,0.646
199453,1755606525447,16.45,48.01,-21.86,800,779,775,418,873,34.48275862068966,-0.28,0.718,0.648
199482,1755606525476,16.47,48.03,-21.87,801,777,774,350,870,34.48275862068966,-0.283,0.719,0.652
199541,1755606525535,16.52,48.08,-21.86,799,777,773,407,877,34.48275862068966,-0.281,0.717,0.652
199571,1755606525564,16.54,48.12,-21.87,803,777,776,426,873,33.333333333333336,-0.28,0.718,0.651
199600,1755606525594,16.53,48.07,-21.88,801,775,773,354,879,34.48275862068966,-0.28,0.718,0.647
199630,1755606525623,16.51,48.03,-21.89,797,774,777,339,873,33.333333333333336,-0.282,0.719,0.651
199659,1755606525653,16.53,48.1,-21.87,800,771,777,376,881,34.48275862068966,-0.283,0.721,0.652
199688,1755606525682,16.53,48.08,-21.88,799,776,774,424,871,34.48275862068966,-0.282,0.718,0.646
199718,1755606525712,16.51,48.04,-21.86,801,779,775,403,870,33.333333333333336,-0.279,0.716,0.649
199747,1755606525741,16.51,48.06,-21.85,800,768,776,343,877,34.48275862068966,-0.278,0.719,0.651
199777,1755606525771,16.51,48.04,-21.89,800,772,769,370,870,33.333333333333336,-0.276,0.719,0.649
199806,1755606525800,16.48,48.04,-21.92,796,776,770,417,876,34.48275862068966,-0.276,0.717,0.649
199836,1755606525829,16.46,48.05,-21.93,797,774,774,394,874,33.333333333333336,-0.278,0.716,0.65
199865,1755606525859,16.47,48.03,-21.95,802,778,780,343,874,34.48275862068966,-0.281,0.717,0.65
199895,1755606525889,16.48,48.05,-21.94,796,775,774,343,877,33.333333333333336,-0.281,0.716,0.65
199924,1755606525918,16.5,48.08,-21.94,801,770,774,402,876,34.48275862068966,-0.279,0.717,0.649
199954,1755606525948,16.48,48.04,-21.97,799,776,771,411,874,33.333333333333336,-0.278,0.717,0.646
199983,1755606525977,16.41,47.94,-21.97,802,778,773,370,870,34.48275862068966,-0.279,0.715,0.648
200013,1755606526007,16.39,47.95,-21.95,801,775,776,333,874,33.333333333333336,-0.28,0.715,0.653
200042,1755606526037,16.47,48.01,-21.99,799,773,772,390,872,34.48275862068966,-0.282,0.718,0.655
200072,1755606526066,16.5,48.03,-22.01,801,774,778,438,876,33.333333333333336,-0.282,0.716,0.651
200102,1755606526096,16.47,48.05,-21.99,800,772,776,408,873,33.333333333333336,-0.28,0.717,0.65
200131,1755606526125,16.48,48.05,-22.0,804,775,778,346,878,34.48275862068966,-0.279,0.718,0.65
200161,1755606526154,16.46,48.02,-22.0,800,774,776,373,877,33.333333333333336,-0.279,0.718,0.648
200190,1755606526184,16.45,48.01,-22.02,799,778,773,434,872,34.48275862068966,-0.28,0.72,0.65
200219,1755606526213,16.45,48.06,-22.01,802,778,776,412,875,34.48275862068966,-0.281,0.716,0.654
200249,1755606526243,16.47,48.07,-22.01,800,774,776,340,870,33.333333333333336,-0.283,0.716,0.651
200278,1755606526272,16.47,48.01,-22.01,800,771,773,341,871,34.48275862068966,-0.283,0.714,0.649
200338,1755606526332,16.44,47.99,-21.98,796,776,776,421,873,33.333333333333336,-0.278,0.718,0.652
200367,1755606526361,16.47,48.01,-22.02,801,770,769,386,877,34.48275862068966,-0.279,0.717,0.653
200426,1755606526420,16.45,47.99,-22.0,800,777,771,368,875,34.48275862068966,-0.282,0.715,0.649
200456,1755606526449,16.43,47.94,-21.99,797,769,776,419,878,33.333333333333336,-0.281,0.716,0.65
200485,1755606526479,16.41,47.92,-21.97,801,770,771,387,883,34.48275862068966,-0.28,0.717,0.652
200515,1755606526508,16.39,47.96,-21.98,801,778,777,336,871,33.333333333333336,-0.279,0.718,0.653
200544,1755606526538,16.41,47.97,-22.02,797,777,770,344,876,34.48275862068966,-0.279,0.716,0.653
200564,1755606526558,16.4,47.99,-22.03,802,776,776,360,876,50.0,-0.274,0.716,0.651
200593,1755606526588,16.4,47.95,-22.02,796,768,775,366,872,34.48275862068966,-0.276,0.714,0.652
200623,1755606526617,16.39,47.96,-22.0,794,770,773,412,878,33.333333333333336,-0.277,0.716,0.652
200652,1755606526647,16.42,47.99,-22.03,794,776,776,353,873,34.48275862068966,-0.276,0.718,0.653
200682,1755606526676,16.44,48.01,-22.07,801,776,774,342,874,33.333333333333336,-0.278,0.718,0.65
200712,1755606526705,16.39,47.96,-22.06,798,773,773,342,876,33.333333333333336,-0.279,0.716,0.646
200741,1755606526735,16.35,47.87,-22.04,796,777,770,397,871,34.48275862068966,-0.279,0.715,0.65
200771,1755606526765,16.38,47.93,-22.01,798,772,771,402,868,33.333333333333336,-0.28,0.717,0.655
200800,1755606526794,16.42,47.98,-22.04,799,773,772,364,879,34.48275862068966,-0.279,0.719,0.651
200830,1755606526823,16.4,47.95,-22.05,800,779,769,333,875,33.333333333333336,-0.277,0.717,0.648
200859,1755606526853,16.39,47.94,-22.05,801,779,773,375,872,34.48275862068966,-0.278,0.717,0.648
200889,1755606526882,16.39,47.91,-22.06,798,767,774,415,876,33.333333333333336,-0.279,0.718,0.648
200918,1755606526912,16.39,47.86,-22.07,801,772,770,390,870,34.48275862068966,-0.281,0.717,0.65
200947,1755606526941,16.38,47.89,-22.06,800,772,775,345,876,34.48275862068966,-0.281,0.717,0.651
201006,1755606527000,16.38,47.88,-22.09,800,773,777,419,877,34.48275862068966,-0.279,0.717,0.652
201036,1755606527029,16.35,47.92,-22.08,798,775,777,397,877,33.333333333333336,-0.281,0.717,0.652
201065,1755606527059,16.33,47.9,-22.07,803,777,771,338,873,34.48275862068966,-0.281,0.716,0.65
201094,1755606527088,16.28,47.89,-22.02,800,778,775,342,875,34.48275862068966,-0.279,0.718,0.652
201124,1755606527118,16.23,47.91,-21.98,801,780,775,405,878,33.333333333333336,-0.276,0.718,0.651
201154,1755606527147,16.24,47.88,-22.02,801,774,778,413,873,33.333333333333336,-0.277,0.718,0.651
201183,1755606527177,16.25,47.86,-22.03,797,774,772,369,876,34.48275862068966,-0.278,0.717,0.651
201213,1755606527206,16.26,47.87,-22.02,799,773,775,346,874,33.333333333333336,-0.277,0.717,0.65
201242,1755606527236,16.27,47.86,-22.03,797,774,771,406,871,34.48275862068966,-0.277,0.718,0.65
201271,1755606527265,16.29,47.81,-22.06,797,768,769,423,875,34.48275862068966,-0.276,0.717,0.65
201301,1755606527295,16.28,47.8,-22.06,801,775,774,378,872,33.333333333333336,-0.276,0.717,0.651
201321,1755606527315,16.26,47.79,-22.06,803,776,775,409,879,50.0,-0.276,0.717,0.651
201350,1755606527344,16.25,47.75,-22.08,800,776,778,376,873,34.48275862068966,-0.277,0.717,0.652
201409,1755606527403,16.27,47.8,-22.09,801,773,769,373,871,34.48275862068966,-0.277,0.717,0.653
201439,1755606527433,16.28,47.76,-22.11,802,776,777,408,880,33.333333333333336,-0.276,0.715,0.652
201469,1755606527462,16.29,47.71,-22.12,803,771,770,380,879,33.333333333333336,-0.276,0.715,0.653
201498,1755606527492,16.29,47.77,-22.12,796,779,769,327,877,34.48275862068966,-0.278,0.716,0.654
201527,1755606527521,16.29,47.78,-22.13,799,773,779,345,874,34.48275862068966,-0.277,0.717,0.651
201557,1755606527551,16.29,47.76,-22.14,800,767,775,407,874,33.333333333333336,-0.277,0.717,0.651
201586,1755606527581,16.28,47.75,-22.15,795,778,777,411,874,34.48275862068966,-0.275,0.717,0.653
201616,1755606527610,16.3,47.75,-22.18,801,774,773,354,877,33.333333333333336,-0.277,0.717,0.652
201646,1755606527640,16.27,47.7,-22.19,799,774,770,338,873,33.333333333333336,-0.277,0.715,0.648
201675,1755606527669,16.27,47.7,-22.2,798,779,772,402,876,34.48275862068966,-0.278,0.717,0.651
201705,1755606527699,16.25,47.73,-22.17,802,773,775,377,875,33.333333333333336,-0.277,0.717,0.655
201764,1755606527758,16.25,47.71,-22.2,801,775,770,344,873,33.333333333333336,-0.278,0.714,0.651
201823,1755606527816,16.26,47.74,-22.2,795,778,778,422,876,33.333333333333336,-0.279,0.717,0.653
201852,1755606527846,16.27,47.77,-22.2,806,782,773,397,877,34.48275862068966,-0.28,0.715,0.651
201881,1755606527875,16.25,47.7,-22.18,799,775,774,339,878,34.48275862068966,-0.28,0.714,0.649
201911,1755606527905,16.23,47.7,-22.18,801,776,773,352,876,33.333333333333336,-0.278,0.717,0.651
201940,1755606527934,16.25,47.78,-22.17,801,773,773,415,876,34.48275862068966,-0.279,0.718,0.655
201970,1755606527963,16.28,47.81,-22.18,799,779,777,420,875,33.333333333333336,-0.279,0.717,0.652
201999,1755606527993,16.28,47.78,-22.18,798,778,775,346,874,34.48275862068966,-0.278,0.715,0.65
202028,1755606528022,16.26,47.79,-22.16,800,774,770,350,872,34.48275862068966,-0.277,0.715,0.652
202058,1755606528052,16.27,47.8,-22.15,798,774,775,399,870,33.333333333333336,-0.278,0.717,0.652
202087,1755606528081,16.27,47.79,-22.16,801,774,775,421,877,34.48275862068966,-0.276,0.716,0.651
202117,1755606528111,16.26,47.81,-22.18,798,768,773,368,874,33.333333333333336,-0.275,0.717,0.65
202146,1755606528140,16.26,47.83,-22.18,795,779,774,331,873,34.48275862068966,-0.276,0.716,0.653
202176,1755606528170,16.26,47.82,-22.19,801,769,774,384,874,33.333333333333336,-0.277,0.716,0.651
202205,1755606528199,16.27,47.81,-22.21,801,768,776,411,874,34.48275862068966,-0.278,0.716,0.65
202294,1755606528288,16.25,47.76,-22.19,799,778,774,361,874,34.48275862068966,-0.276,0.718,0.654
202324,1755606528318,16.26,47.81,-22.21,801,773,776,420,876,33.333333333333336,-0.275,0.717,0.653
202353,1755606528347,16.27,47.81,-22.23,800,777,776,420,874,34.48275862068966,-0.277,0.716,0.65
202383,1755606528377,16.24,47.76,-22.21,801,771,779,351,877,33.333333333333336,-0.277,0.714,0.65
202412,1755606528406,16.24,47.75,-22.21,802,777,770,343,873,34.48275862068966,-0.277,0.716,0.652
202442,1755606528436,16.26,47.79,-22.22,796,773,774,382,876,33.333333333333336,-0.277,0.718,0.655
202471,1755606528465,16.27,47.81,-22.24,799,777,774,399,872,34.48275862068966,-0.275,0.718,0.652
202501,1755606528495,16.24,47.82,-22.27,800,773,775,364,873,33.333333333333336,-0.272,0.717,0.65
202530,1755606528524,16.23,47.84,-22.27,799,774,774,333,873,34.48275862068966,-0.278,0.717,0.651
202560,1755606528554,16.23,47.81,-22.27,800,780,776,359,878,33.333333333333336,-0.281,0.716,0.65
202589,1755606528584,16.24,47.78,-22.23,801,775,774,426,873,34.48275862068966,-0.282,0.715,0.653
202619,1755606528613,16.23,47.78,-22.16,805,779,773,371,876,33.333333333333336,-0.278,0.714,0.654
202649,1755606528642,16.25,47.8,-22.18,799,777,777,321,876,33.333333333333336,-0.274,0.717,0.654
202708,1755606528701,16.21,47.72,-22.18,797,774,775,387,869,33.333333333333336,-0.275,0.713,0.654
202737,1755606528731,16.23,47.73,-22.2,798,772,774,424,869,34.48275862068966,-0.276,0.716,0.657
202766,1755606528760,16.26,47.74,-22.21,798,768,773,364,868,34.48275862068966,-0.277,0.715,0.655
202796,1755606528790,16.24,47.74,-22.2,803,772,771,333,876,33.333333333333336,-0.275,0.715,0.652
202825,1755606528819,16.23,47.71,-22.2,800,774,772,376,874,34.48275862068966,-0.274,0.715,0.655
202855,1755606528849,16.21,47.7,-22.19,801,777,774,427,873,33.333333333333336,-0.275,0.713,0.656
202884,1755606528878,16.22,47.68,-22.22,799,772,772,386,879,34.48275862068966,-0.276,0.714,0.656
202914,1755606528908,16.21,47.71,-22.21,801,771,775,338,878,33.333333333333336,-0.277,0.715,0.658
202973,1755606528966,16.22,47.73,-22.21,804,776,773,412,874,33.333333333333336,-0.273,0.716,0.653
203002,1755606528996,16.18,47.73,-22.21,799,775,773,399,874,34.48275862068966,-0.274,0.716,0.654
203031,1755606529025,16.18,47.75,-22.22,796,768,774,323,876,34.48275862068966,-0.274,0.716,0.656
203061,1755606529055,16.18,47.78,-22.24,799,779,773,351,877,33.333333333333336,-0.274,0.716,0.654
203090,1755606529084,16.16,47.79,-22.25,802,768,774,405,873,34.48275862068966,-0.276,0.716,0.651
203120,1755606529114,16.13,47.72,-22.24,809,773,773,415,874,33.333333333333336,-0.276,0.714,0.652
203149,1755606529143,16.12,47.7,-22.22,797,773,774,353,874,34.48275862068966,-0.277,0.717,0.654
203179,1755606529172,16.13,47.77,-22.22,799,774,770,348,873,33.333333333333336,-0.276,0.72,0.654
203208,1755606529202,16.13,47.76,-22.25,802,776,775,389,872,34.48275862068966,-0.274,0.717,0.653
203237,1755606529232,16.12,47.72,-22.27,804,776,772,413,875,34.48275862068966,-0.274,0.716,0.651
203267,1755606529261,16.1,47.73,-22.26,795,772,777,354,874,33.333333333333336,-0.274,0.717,0.653
203296,1755606529290,16.12,47.73,-22.29,796,781,776,345,872,34.48275862068966,-0.275,0.719,0.656
203326,1755606529320,16.14,47.75,-22.3,804,769,770,388,870,33.333333333333336,-0.275,0.718,0.657
203355,1755606529349,16.17,47.81,-22.32,802,771,776,425,871,34.48275862068966,-0.275,0.715,0.652
203385,1755606529379,16.14,47.76,-22.33,800,772,770,407,868,33.333333333333336,-0.277,0.716,0.649
203414,1755606529408,16.07,47.71,-22.27,802,776,775,334,872,34.48275862068966,-0.276,0.715,0.654
203473,1755606529467,16.09,47.79,-22.26,800,775,777,426,876,34.48275862068966,-0.276,0.717,0.658
203502,1755606529496,16.09,47.8,-22.28,808,768,774,412,877,34.48275862068966,-0.273,0.716,0.653
203532,1755606529526,16.06,47.78,-22.3,797,775,774,366,885,33.333333333333336,-0.274,0.717,0.652
203562,1755606529555,16.02,47.78,-22.3,799,768,771,354,877,33.333333333333336,-0.274,0.717,0.654
203591,1755606529585,16.02,47.79,-22.29,801,772,773,413,874,34.48275862068966,-0.276,0.716,0.655
203620,1755606529614,16.04,47.8,-22.27,799,768,775,418,880,34.48275862068966,-0.278,0.715,0.652
203650,1755606529644,15.99,47.73,-22.21,801,774,776,371,878,33.333333333333336,-0.275,0.716,0.648
203680,1755606529673,15.99,47.73,-22.21,794,773,777,347,875,33.333333333333336,-0.27,0.719,0.652
203709,1755606529703,16.02,47.75,-22.22,802,774,775,397,876,34.48275862068966,-0.272,0.719,0.657
203739,1755606529733,16.06,47.75,-22.24,798,778,779,418,875,33.333333333333336,-0.271,0.717,0.653
203768,1755606529762,16.08,47.69,-22.28,803,778,771,392,873,34.48275862068966,-0.269,0.716,0.65
203827,1755606529821,16.06,47.68,-22.29,803,774,777,353,869,34.48275862068966,-0.274,0.719,0.654
203886,1755606529880,16.08,47.79,-22.29,801,780,779,402,875,34.48275862068966,-0.273,0.718,0.656
203916,1755606529910,16.08,47.82,-22.31,802,777,776,322,877,33.333333333333336,-0.27,0.717,0.653
203946,1755606529940,16.08,47.75,-22.33,801,776,774,319,878,33.333333333333336,-0.273,0.717,0.652
203975,1755606529969,16.04,47.75,-22.29,799,773,775,399,874,34.48275862068966,-0.274,0.716,0.653
204005,1755606529999,16.04,47.78,-22.29,798,773,774,411,875,33.333333333333336,-0.274,0.719,0.652
204035,1755606530029,16.03,47.78,-22.33,802,773,776,386,876,33.333333333333336,-0.272,0.718,0.65
204094,1755606530087,16.01,47.75,-22.32,797,768,774,345,878,33.333333333333336,-0.276,0.715,0.655
204123,1755606530117,16.03,47.79,-22.29,800,772,776,400,873,34.48275862068966,-0.277,0.717,0.655
204152,1755606530146,16.01,47.79,-22.29,800,777,774,402,868,34.48275862068966,-0.272,0.717,0.65
204182,1755606530176,15.99,47.75,-22.28,797,771,776,356,882,33.333333333333336,-0.27,0.716,0.65
204211,1755606530206,15.98,47.72,-22.29,797,780,771,344,872,34.48275862068966,-0.27,0.717,0.654
204241,1755606530235,16.01,47.74,-22.31,799,778,773,393,875,33.333333333333336,-0.271,0.718,0.656
204271,1755606530265,16.0,47.76,-22.3,805,773,774,423,876,33.333333333333336,-0.271,0.717,0.652
204301,1755606530295,16.0,47.76,-22.29,801,769,777,365,877,33.333333333333336,-0.27,0.717,0.652
204330,1755606530324,16.03,47.72,-22.31,800,768,775,335,870,34.48275862068966,-0.27,0.717,0.652
204360,1755606530353,16.04,47.74,-22.3,797,773,774,360,876,33.333333333333336,-0.271,0.719,0.653
204389,1755606530383,16.01,47.79,-22.29,800,776,774,401,874,34.48275862068966,-0.269,0.721,0.652
204418,1755606530412,16.01,47.76,-22.35,799,770,774,382,875,34.48275862068966,-0.269,0.72,0.65
204448,1755606530442,16.01,47.74,-22.35,801,774,777,333,874,33.333333333333336,-0.272,0.719,0.653
204477,1755606530471,16.02,47.77,-22.31,802,770,772,349,874,34.48275862068966,-0.271,0.72,0.652
204507,1755606530501,16.04,47.76,-22.32,798,769,772,411,878,33.333333333333336,-0.27,0.72,0.648
204537,1755606530531,16.02,47.72,-22.31,800,773,776,409,875,33.333333333333336,-0.269,0.717,0.651
204566,1755606530560,16.03,47.75,-22.31,796,775,775,360,874,34.48275862068966,-0.27,0.718,0.655
204596,1755606530589,16.07,47.82,-22.33,801,770,777,348,875,33.333333333333336,-0.273,0.718,0.657
204625,1755606530619,16.13,47.88,-22.33,799,769,774,410,870,34.48275862068966,-0.274,0.715,0.655
204654,1755606530648,16.14,47.93,-22.31,801,773,771,437,879,34.48275862068966,-0.272,0.718,0.651
204684,1755606530678,16.1,47.93,-22.29,795,768,776,366,869,33.333333333333336,-0.271,0.719,0.649
204714,1755606530707,16.1,47.88,-22.31,799,780,770,349,871,33.333333333333336,-0.271,0.717,0.651
204743,1755606530737,16.11,47.93,-22.3,801,773,777,368,877,34.48275862068966,-0.273,0.718,0.654
204772,1755606530766,16.15,48.0,-22.33,804,779,777,376,882,34.48275862068966,-0.272,0.719,0.653
204802,1755606530796,16.18,48.01,-22.35,799,770,770,395,876,33.333333333333336,-0.274,0.718,0.647
204831,1755606530825,16.15,47.95,-22.33,796,771,773,330,871,34.48275862068966,-0.274,0.718,0.645
204861,1755606530855,16.17,47.97,-22.33,802,776,770,353,876,33.333333333333336,-0.273,0.72,0.649
204891,1755606530884,16.23,48.1,-22.36,798,771,778,403,872,33.333333333333336,-0.272,0.721,0.651
204950,1755606530944,16.23,48.17,-22.39,797,769,771,353,874,33.333333333333336,-0.272,0.719,0.645
204979,1755606530973,16.19,48.16,-22.35,801,777,769,332,888,34.48275862068966,-0.274,0.721,0.645
205009,1755606531003,16.19,48.16,-22.35,800,774,774,389,878,33.333333333333336,-0.273,0.722,0.648
205068,1755606531062,16.22,48.17,-22.37,797,773,772,383,878,33.333333333333336,-0.273,0.721,0.645
205097,1755606531091,16.2,48.13,-22.36,802,772,769,343,878,34.48275862068966,-0.273,0.72,0.647
205127,1755606531121,16.2,48.14,-22.37,802,773,775,370,876,33.333333333333336,-0.274,0.722,0.648
205156,1755606531150,16.22,48.14,-22.4,801,775,777,416,871,34.48275862068966,-0.276,0.722,0.646
205186,1755606531180,16.21,48.13,-22.39,800,776,774,400,867,33.333333333333336,-0.277,0.721,0.647
205235,1755606531229,16.22,48.13,-22.39,800,774,777,387,865,34.48275862068966,-0.276,0.723,0.646
205324,1755606531317,16.2,48.09,-22.44,798,775,776,420,871,33.333333333333336,-0.277,0.722,0.648
205353,1755606531347,16.22,48.13,-22.43,799,771,772,422,877,34.48275862068966,-0.278,0.722,0.649
205382,1755606531376,16.24,48.16,-22.41,799,779,773,343,876,34.48275862068966,-0.277,0.72,0.649
205412,1755606531406,16.28,48.14,-22.41,798,773,773,334,876,33.333333333333336,-0.277,0.72,0.648
205441,1755606531435,16.28,48.13,-22.39,798,777,777,407,876,34.48275862068966,-0.275,0.72,0.647
205500,1755606531494,16.23,47.69,-22.39,797,772,771,361,872,34.48275862068966,-0.274,0.722,0.647
205530,1755606531523,16.24,47.72,-22.4,801,768,778,332,874,33.333333333333336,-0.274,0.721,0.648
205559,1755606531554,16.3,47.8,-22.41,799,779,771,375,872,34.48275862068966,-0.273,0.72,0.652
205589,1755606531583,16.38,47.94,-22.45,799,778,776,406,869,33.333333333333336,-0.274,0.724,0.647
205618,1755606531613,16.38,47.89,-22.52,803,776,773,389,870,34.48275862068966,-0.275,0.725,0.638
205648,1755606531642,16.27,47.72,-22.52,795,775,773,327,877,33.333333333333336,-0.274,0.719,0.636
205678,1755606531672,16.21,47.73,-22.44,798,773,780,348,873,33.333333333333336,-0.276,0.72,0.649
205707,1755606531701,16.28,47.86,-22.48,801,773,776,412,876,34.48275862068966,-0.277,0.727,0.652
205737,1755606531730,16.26,47.84,-22.5,799,779,774,400,871,33.333333333333336,-0.274,0.723,0.641
205766,1755606531760,16.21,47.78,-22.49,795,776,777,348,879,34.48275862068966,-0.272,0.718,0.64
205795,1755606531789,16.16,47.83,-22.43,798,779,774,343,875,34.48275862068966,-0.275,0.723,0.648
205825,1755606531819,16.11,47.87,-22.42,799,781,774,393,875,33.333333333333336,-0.274,0.725,0.646
205855,1755606531848,16.13,47.8,-22.49,799,776,774,421,874,33.333333333333336,-0.273,0.722,0.652
205884,1755606531878,16.06,47.83,-22.45,798,775,777,366,872,34.48275862068966,-0.274,0.721,0.649
205913,1755606531907,15.98,47.84,-22.39,798,773,773,337,869,34.48275862068966,-0.273,0.72,0.646
205943,1755606531937,15.99,47.82,-22.39,801,774,773,387,871,33.333333333333336,-0.275,0.723,0.651
205972,1755606531966,15.88,47.83,-22.33,799,774,777,425,876,34.48275862068966,-0.271,0.725,0.648
206002,1755606531996,15.81,47.68,-22.35,800,774,774,392,876,33.333333333333336,-0.269,0.721,0.647
206031,1755606532025,15.85,47.53,-22.4,801,773,776,334,883,34.48275862068966,-0.271,0.72,0.648
206061,1755606532055,15.64,47.55,-22.24,798,771,774,368,878,33.333333333333336,-0.274,0.721,0.653
206119,1755606532113,15.66,47.29,-22.34,798,773,773,422,885,34.48275862068966,-0.265,0.719,0.656
206149,1755606532143,15.66,47.34,-22.34,799,772,769,352,881,33.333333333333336,-0.264,0.718,0.662
206178,1755606532172,15.64,47.33,-22.37,798,775,774,345,880,34.48275862068966,-0.262,0.716,0.66
206208,1755606532201,15.67,47.22,-22.47,800,770,772,402,882,33.333333333333336,-0.264,0.715,0.658
206237,1755606532231,15.63,47.18,-22.42,804,770,769,419,880,34.48275862068966,-0.266,0.713,0.661
206266,1755606532260,15.68,47.27,-22.43,804,769,773,363,882,34.48275862068966,-0.268,0.713,0.666
206296,1755606532290,15.76,47.39,-22.44,801,778,771,354,885,33.333333333333336,-0.271,0.716,0.665
206325,1755606532319,15.76,47.33,-22.43,804,774,774,391,881,34.48275862068966,-0.27,0.713,0.657
206355,1755606532349,15.71,47.27,-22.41,802,774,772,417,882,33.333333333333336,-0.268,0.712,0.656
206384,1755606532378,15.64,47.36,-22.3,804,773,772,378,879,34.48275862068966,-0.269,0.715,0.664
206414,1755606532408,15.61,47.33,-22.23,802,776,774,326,881,33.333333333333336,-0.268,0.716,0.66
206443,1755606532437,15.57,47.31,-22.19,801,768,772,364,881,34.48275862068966,-0.266,0.712,0.656
206503,1755606532497,15.58,47.33,-22.07,803,779,776,417,885,33.333333333333336,-0.265,0.718,0.659
206532,1755606532526,15.52,47.19,-22.02,801,774,773,353,875,34.48275862068966,-0.263,0.712,0.657
206562,1755606532556,15.5,47.26,-21.97,799,774,773,333,882,33.333333333333336,-0.262,0.715,0.663
206591,1755606532585,15.49,47.26,-21.98,803,771,774,392,875,34.48275862068966,-0.259,0.718,0.659
206621,1755606532614,15.45,47.11,-21.99,798,775,775,420,882,33.333333333333336,-0.258,0.711,0.656
206650,1755606532644,15.46,47.02,-22.01,795,774,776,372,876,34.48275862068966,-0.259,0.714,0.661
