timestamp_ms,recv_timestamp_ms,pitch,roll,yaw,flex1,flex2,flex3,flex4,flex5,sampling_hz,accel_x,accel_y,accel_z
66095,1755603618547,17.03,-40.83,-20.25,767,862,772,388,863,34.48275862068966,-0.287,-0.628,0.724
66125,1755603618549,17.04,-40.82,-20.25,777,865,773,304,859,33.333333333333336,-0.287,-0.627,0.723
66184,1755603618553,17.04,-40.83,-20.27,773,864,777,418,860,33.333333333333336,-0.288,-0.629,0.723
66213,1755603618555,17.02,-40.87,-20.3,776,858,771,399,863,34.48275862068966,-0.287,-0.629,0.722
66243,1755603618557,17.04,-40.83,-20.28,774,865,772,325,853,33.333333333333336,-0.288,-0.629,0.724
66332,1755603618564,17.07,-40.84,-20.29,778,866,773,433,856,33.333333333333336,-0.287,-0.629,0.725
66361,1755603618565,17.12,-40.78,-20.26,770,864,769,385,862,34.48275862068966,-0.285,-0.629,0.725
66391,1755603618567,17.07,-40.8,-20.29,775,862,769,324,866,33.333333333333336,-0.285,-0.628,0.722
66421,1755603618570,17.09,-40.8,-20.28,770,864,767,342,858,33.333333333333336,-0.286,-0.628,0.721
66450,1755603618572,17.1,-40.79,-20.27,777,858,766,437,866,34.48275862068966,-0.286,-0.628,0.721
66480,1755603618575,17.05,-40.8,-20.28,770,865,770,407,857,33.333333333333336,-0.287,-0.627,0.722
66539,1755603618579,17.02,-40.82,-20.27,766,865,771,307,857,33.333333333333336,-0.287,-0.628,0.723
66569,1755603618581,17.05,-40.82,-20.25,764,860,775,408,862,33.333333333333336,-0.285,-0.627,0.722
66628,1755603618585,17.02,-40.82,-20.27,770,858,768,358,863,33.333333333333336,-0.284,-0.628,0.723
66766,1755603618595,17.01,-40.82,-20.27,769,865,772,451,843,33.333333333333336,-0.287,-0.628,0.722
66836,1755603618601,17.04,-40.81,-20.25,770,854,771,329,858,50.0,-0.285,-0.627,0.724
66866,1755603618603,17.03,-40.8,-20.26,772,865,767,408,858,33.333333333333336,-0.286,-0.627,0.723
66896,1755603618605,17.05,-40.79,-20.26,771,854,773,394,859,33.333333333333336,-0.286,-0.627,0.722
66925,1755603618607,17.03,-40.83,-20.28,776,865,772,322,856,34.48275862068966,-0.286,-0.627,0.722
66955,1755603618609,17.04,-40.82,-20.28,778,862,777,337,864,33.333333333333336,-0.286,-0.626,0.723
66984,1755603618611,17.06,-40.84,-20.28,770,861,772,396,856,34.48275862068966,-0.286,-0.627,0.723
67014,1755603618613,17.08,-40.86,-20.28,774,866,775,413,851,33.333333333333336,-0.285,-0.627,0.722
67073,1755603618617,17.09,-40.89,-20.28,773,864,774,324,861,33.333333333333336,-0.287,-0.628,0.724
67132,1755603618621,17.09,-40.87,-20.3,771,859,767,436,863,33.333333333333336,-0.285,-0.628,0.724
67161,1755603618623,17.11,-40.9,-20.31,770,864,767,392,865,34.48275862068966,-0.286,-0.628,0.724
67191,1755603618625,17.12,-40.86,-20.3,772,863,770,320,861,33.333333333333336,-0.285,-0.627,0.724
67220,1755603618627,17.09,-40.85,-20.33,772,860,780,350,858,34.48275862068966,-0.285,-0.627,0.722
67279,1755603618632,17.08,-40.89,-20.31,771,854,771,399,859,34.48275862068966,-0.288,-0.63,0.721
67338,1755603618636,17.04,-40.91,-20.31,773,860,775,309,853,34.48275862068966,-0.286,-0.629,0.723
67397,1755603618640,17.05,-40.89,-20.3,773,859,774,431,861,34.48275862068966,-0.285,-0.628,0.722
67486,1755603618645,17.05,-40.89,-20.27,769,866,764,369,866,34.48275862068966,-0.286,-0.629,0.724
67516,1755603618647,17.02,-40.91,-20.28,773,855,774,439,863,33.333333333333336,-0.285,-0.629,0.723
67575,1755603618651,17.02,-40.92,-20.27,770,866,771,323,856,34.48275862068966,-0.285,-0.628,0.723
67634,1755603618655,17.01,-40.94,-20.27,776,857,768,422,858,34.48275862068966,-0.286,-0.629,0.724
67722,1755603618661,17.06,-40.89,-20.25,776,866,776,329,859,34.48275862068966,-0.284,-0.627,0.725
67752,1755603618663,17.05,-40.92,-20.27,779,866,772,411,855,33.333333333333336,-0.284,-0.627,0.724
67782,1755603618666,17.07,-40.92,-20.27,770,863,769,431,860,33.333333333333336,-0.286,-0.628,0.724
67841,1755603618670,17.05,-40.93,-20.3,771,857,767,320,860,34.48275862068966,-0.286,-0.628,0.723
67900,1755603618673,17.06,-40.94,-20.32,767,864,776,417,858,34.48275862068966,-0.285,-0.628,0.723
67930,1755603618676,17.06,-40.91,-20.32,773,860,773,372,856,33.333333333333336,-0.285,-0.628,0.723
68019,1755603618681,17.1,-40.95,-20.33,771,863,772,356,862,33.333333333333336,-0.286,-0.629,0.725
68048,1755603618684,17.1,-40.93,-20.33,774,857,773,420,862,34.48275862068966,-0.285,-0.629,0.725
68078,1755603618685,17.09,-40.96,-20.35,769,850,775,369,864,33.333333333333336,-0.286,-0.629,0.723
68167,1755603618690,17.06,-40.98,-20.35,775,855,770,427,862,33.333333333333336,-0.286,-0.63,0.724
68197,1755603618693,17.06,-40.97,-20.35,775,861,770,425,857,33.333333333333336,-0.285,-0.629,0.724
68315,1755603618700,17.08,-40.95,-20.34,775,861,771,432,856,33.333333333333336,-0.286,-0.631,0.721
68344,1755603618702,17.07,-40.98,-20.33,771,862,776,390,861,34.48275862068966,-0.287,-0.63,0.721
68374,1755603618704,17.1,-41.0,-20.31,770,862,768,320,855,33.333333333333336,-0.286,-0.629,0.722
68404,1755603618707,17.09,-40.97,-20.31,768,862,770,353,856,33.333333333333336,-0.285,-0.628,0.723
68492,1755603618713,17.06,-40.97,-20.34,775,860,769,319,856,34.48275862068966,-0.286,-0.63,0.723
68522,1755603618715,17.06,-40.98,-20.34,771,865,780,324,859,33.333333333333336,-0.286,-0.629,0.722
68551,1755603618718,17.07,-40.99,-20.33,767,863,776,408,864,34.48275862068966,-0.287,-0.629,0.723
68581,1755603618719,17.1,-40.96,-20.32,775,854,768,425,860,33.333333333333336,-0.287,-0.629,0.725
68611,1755603618722,17.11,-40.89,-20.3,773,859,769,374,851,33.333333333333336,-0.285,-0.629,0.724
68670,1755603618726,17.12,-40.83,-20.28,768,864,771,345,860,33.333333333333336,-0.287,-0.629,0.724
68700,1755603618728,17.19,-40.74,-20.22,770,856,772,432,857,33.333333333333336,-0.289,-0.629,0.725
68729,1755603618729,17.35,-40.5,-20.08,772,860,769,416,863,34.48275862068966,-0.292,-0.627,0.727
68818,1755603618736,17.35,-40.26,-20.08,768,858,773,415,854,33.333333333333336,-0.291,-0.624,0.726
68847,1755603618737,17.47,-40.0,-19.97,776,863,774,431,857,34.48275862068966,-0.293,-0.624,0.728
68906,1755603618742,17.3,-39.55,-19.96,776,850,774,323,864,34.48275862068966,-0.291,-0.615,0.723
68936,1755603618744,17.31,-39.66,-19.93,777,853,775,382,859,33.333333333333336,-0.295,-0.614,0.726
68966,1755603618746,17.37,-39.61,-19.84,771,849,780,418,858,33.333333333333336,-0.294,-0.613,0.733
68995,1755603618749,17.35,-39.69,-19.87,768,846,775,388,852,34.48275862068966,-0.293,-0.609,0.734
69025,1755603618751,17.31,-39.79,-19.89,769,852,773,314,860,33.333333333333336,-0.294,-0.61,0.736
69054,1755603618752,17.39,-39.75,-19.87,774,847,770,343,855,34.48275862068966,-0.293,-0.61,0.737
69084,1755603618754,17.36,-39.78,-19.89,770,857,771,430,856,33.333333333333336,-0.294,-0.61,0.735
69113,1755603618757,17.31,-39.9,-19.93,773,839,770,426,856,34.48275862068966,-0.296,-0.611,0.734
69143,1755603618759,17.32,-39.91,-19.9,772,852,763,349,861,33.333333333333336,-0.299,-0.611,0.737
69172,1755603618761,17.36,-39.81,-19.84,773,857,774,337,850,34.48275862068966,-0.297,-0.609,0.739
69202,1755603618763,17.34,-39.81,-19.85,774,851,773,397,860,33.333333333333336,-0.293,-0.606,0.738
69231,1755603618765,17.29,-39.89,-19.89,773,852,771,434,848,34.48275862068966,-0.292,-0.605,0.737
69261,1755603618767,17.33,-39.85,-19.9,774,853,773,375,852,33.333333333333336,-0.292,-0.605,0.74
69290,1755603618769,17.33,-39.77,-19.91,777,848,772,325,857,34.48275862068966,-0.294,-0.608,0.742
69320,1755603618770,17.29,-39.83,-19.94,771,850,780,362,860,33.333333333333336,-0.296,-0.609,0.739
69349,1755603618773,17.33,-39.86,-19.92,777,858,770,443,864,34.48275862068966,-0.298,-0.609,0.737
69379,1755603618774,17.4,-39.79,-19.84,770,845,772,421,857,33.333333333333336,-0.299,-0.607,0.739
69408,1755603618777,17.38,-39.76,-19.85,774,857,770,332,848,34.48275862068966,-0.294,-0.605,0.739
69438,1755603618779,17.37,-39.82,-19.87,765,856,777,345,857,33.333333333333336,-0.293,-0.605,0.739
69468,1755603618781,17.42,-39.82,-19.87,774,844,774,422,849,33.333333333333336,-0.294,-0.607,0.74
69497,1755603618784,17.47,-39.7,-19.84,773,842,778,419,858,34.48275862068966,-0.294,-0.607,0.74
69527,1755603618785,17.43,-39.78,-19.9,778,855,775,352,859,33.333333333333336,-0.294,-0.607,0.737
69586,1755603618789,17.44,-39.85,-19.91,770,861,769,326,847,33.333333333333336,-0.299,-0.609,0.739
69616,1755603618791,17.45,-39.79,-19.9,774,857,771,425,855,33.333333333333336,-0.297,-0.608,0.74
69645,1755603618793,17.42,-39.8,-19.92,775,856,778,394,854,34.48275862068966,-0.295,-0.606,0.739
69674,1755603618795,17.45,-39.82,-19.94,774,847,773,308,849,34.48275862068966,-0.295,-0.606,0.74
69695,1755603618797,17.47,-39.8,-19.94,772,851,769,423,855,47.61904761904762,-0.295,-0.607,0.741
69724,1755603618799,17.47,-39.77,-19.96,773,853,780,337,860,34.48275862068966,-0.296,-0.61,0.74
69754,1755603618801,17.45,-39.79,-19.98,779,853,773,364,849,33.333333333333336,-0.297,-0.611,0.738
69783,1755603618803,17.49,-39.76,-19.95,773,851,773,447,855,34.48275862068966,-0.298,-0.611,0.738
69813,1755603618805,17.51,-39.69,-19.92,773,847,771,424,854,33.333333333333336,-0.296,-0.607,0.736
69842,1755603618807,17.43,-39.72,-19.97,773,849,774,341,855,34.48275862068966,-0.292,-0.605,0.735
69871,1755603618810,17.37,-39.77,-20.02,771,856,773,331,858,34.48275862068966,-0.294,-0.608,0.737
69901,1755603618812,17.44,-39.74,-19.99,769,858,776,409,858,33.333333333333336,-0.296,-0.612,0.74
69921,1755603618813,17.5,-39.7,-19.95,771,856,773,335,855,50.0,-0.296,-0.612,0.739
69951,1755603618815,17.47,-39.69,-19.96,771,854,773,421,855,33.333333333333336,-0.296,-0.609,0.736
69981,1755603618817,17.46,-39.7,-19.97,769,861,774,416,857,33.333333333333336,-0.296,-0.606,0.734
70010,1755603618819,17.48,-39.73,-19.98,771,852,772,366,860,34.48275862068966,-0.295,-0.607,0.734
70030,1755603618821,17.47,-39.76,-20.0,768,849,770,433,845,50.0,-0.296,-0.61,0.737
70060,1755603618823,17.45,-39.77,-20.02,778,854,764,363,858,33.333333333333336,-0.296,-0.612,0.738
70089,1755603618826,17.51,-39.77,-20.0,773,853,771,343,853,34.48275862068966,-0.295,-0.612,0.737
70119,1755603618828,17.53,-39.73,-19.99,775,856,777,381,860,33.333333333333336,-0.295,-0.611,0.737
70148,1755603618830,17.51,-39.75,-20.01,770,845,773,435,855,34.48275862068966,-0.295,-0.608,0.735
70178,1755603618832,17.51,-39.76,-20.02,772,858,778,397,854,33.333333333333336,-0.295,-0.607,0.735
70208,1755603618834,17.55,-39.75,-20.02,774,857,768,316,862,33.333333333333336,-0.296,-0.608,0.737
70237,1755603618836,17.53,-39.74,-20.06,772,855,771,347,852,34.48275862068966,-0.295,-0.61,0.737
70267,1755603618838,17.52,-39.77,-20.08,772,852,773,434,854,33.333333333333336,-0.296,-0.611,0.736
70296,1755603618840,17.54,-39.73,-20.07,775,855,770,420,857,34.48275862068966,-0.296,-0.611,0.735
70326,1755603618842,17.54,-39.69,-20.07,776,854,770,357,856,33.333333333333336,-0.295,-0.61,0.734
70356,1755603618844,17.52,-39.73,-20.1,773,848,776,342,845,33.333333333333336,-0.295,-0.609,0.735
70385,1755603618846,17.51,-39.71,-20.11,770,849,775,413,855,34.48275862068966,-0.295,-0.609,0.736
70415,1755603618848,17.51,-39.69,-20.11,773,851,769,413,855,33.333333333333336,-0.295,-0.609,0.735
70444,1755603618850,17.51,-39.67,-20.11,775,853,764,375,856,34.48275862068966,-0.295,-0.61,0.735
70474,1755603618852,17.48,-39.69,-20.13,775,841,772,330,854,33.333333333333336,-0.294,-0.609,0.735
70503,1755603618854,17.45,-39.69,-20.15,774,841,773,366,858,34.48275862068966,-0.294,-0.609,0.735
70533,1755603618857,17.42,-39.73,-20.18,773,860,772,427,854,33.333333333333336,-0.294,-0.611,0.735
70562,1755603618859,17.41,-39.7,-20.18,778,847,768,416,852,34.48275862068966,-0.296,-0.612,0.736
70592,1755603618861,17.43,-39.67,-20.17,774,853,778,333,854,33.333333333333336,-0.296,-0.612,0.738
70680,1755603618906,17.4,-39.65,-20.16,773,854,773,401,855,34.48275862068966,-0.295,-0.611,0.731
70740,1755603618965,17.28,-39.69,-20.14,773,858,763,296,857,33.333333333333336,-0.296,-0.614,0.734
70760,1755603618985,17.23,-39.67,-20.12,773,853,767,368,863,50.0,-0.295,-0.613,0.734
70809,1755603619035,17.12,-39.65,-20.08,773,854,772,356,858,34.48275862068966,-0.294,-0.614,0.738
70839,1755603619064,17.08,-39.63,-20.05,771,859,767,296,860,33.333333333333336,-0.293,-0.613,0.738
70869,1755603619093,17.07,-39.58,-19.99,769,849,772,397,856,33.333333333333336,-0.292,-0.612,0.737
70898,1755603619123,17.05,-39.53,-19.95,770,855,768,443,857,34.48275862068966,-0.289,-0.611,0.737
70928,1755603619153,17.0,-39.54,-19.95,771,854,774,389,853,33.333333333333336,-0.287,-0.61,0.736
70957,1755603619182,17.0,-39.54,-19.91,767,855,766,333,850,34.48275862068966,-0.287,-0.609,0.739
70987,1755603619212,16.98,-39.53,-19.89,768,858,767,315,852,33.333333333333336,-0.286,-0.607,0.741
71016,1755603619242,16.94,-39.51,-19.89,774,855,774,410,858,34.48275862068966,-0.286,-0.605,0.741
71046,1755603619271,16.93,-39.48,-19.88,773,856,769,416,853,33.333333333333336,-0.286,-0.605,0.74
71076,1755603619300,16.96,-39.46,-19.86,771,847,773,316,844,33.333333333333336,-0.287,-0.605,0.74
71134,1755603619360,16.85,-39.53,-19.88,771,847,768,414,848,34.48275862068966,-0.289,-0.606,0.741
71164,1755603619389,16.87,-39.51,-19.86,770,858,772,415,858,33.333333333333336,-0.289,-0.606,0.742
71194,1755603619419,16.88,-39.53,-19.84,775,851,770,361,851,33.333333333333336,-0.288,-0.606,0.742
71223,1755603619448,16.92,-39.47,-19.81,773,853,774,331,860,34.48275862068966,-0.287,-0.606,0.741
71253,1755603619478,16.94,-39.48,-19.82,767,848,774,371,849,33.333333333333336,-0.287,-0.606,0.742
71282,1755603619508,16.94,-39.41,-19.82,777,853,775,431,842,34.48275862068966,-0.287,-0.607,0.742
71312,1755603619537,16.98,-39.38,-19.81,772,846,771,409,857,33.333333333333336,-0.287,-0.607,0.742
71342,1755603619567,16.99,-39.48,-19.84,777,852,770,306,857,33.333333333333336,-0.287,-0.606,0.741
71362,1755603619587,17.02,-39.48,-19.84,772,852,776,421,852,50.0,-0.288,-0.606,0.742
71392,1755603619617,17.03,-39.46,-19.85,775,853,777,340,855,33.333333333333336,-0.287,-0.604,0.742
71451,1755603619676,17.13,-39.46,-19.86,774,856,774,416,855,33.333333333333336,-0.286,-0.605,0.744
71480,1755603619706,17.16,-39.46,-19.88,778,842,773,435,860,34.48275862068966,-0.287,-0.604,0.744
71510,1755603619735,17.22,-39.42,-19.89,770,841,769,370,856,33.333333333333336,-0.287,-0.602,0.743
71540,1755603619765,17.23,-39.41,-19.94,771,857,773,330,852,33.333333333333336,-0.286,-0.602,0.742
71569,1755603619795,17.24,-39.44,-20.01,767,853,771,353,858,34.48275862068966,-0.288,-0.604,0.742
71599,1755603619824,17.25,-39.47,-20.06,772,849,770,433,851,33.333333333333336,-0.289,-0.605,0.741
71629,1755603619854,17.27,-39.43,-20.1,779,856,770,423,846,33.333333333333336,-0.289,-0.604,0.742
71659,1755603619884,17.28,-39.42,-20.16,768,851,766,326,858,33.333333333333336,-0.29,-0.605,0.742
71688,1755603619913,17.29,-39.42,-20.22,774,851,774,326,853,34.48275862068966,-0.29,-0.605,0.74
71718,1755603619943,17.33,-39.45,-20.27,777,854,768,417,865,33.333333333333336,-0.29,-0.606,0.739
71777,1755603620002,17.32,-39.45,-20.37,772,852,772,359,858,33.333333333333336,-0.293,-0.61,0.739
71807,1755603620032,17.3,-39.48,-20.42,769,843,774,332,851,33.333333333333336,-0.291,-0.61,0.738
71836,1755603620061,17.33,-39.56,-20.44,777,851,770,365,856,34.48275862068966,-0.292,-0.611,0.738
71866,1755603620091,17.34,-39.58,-20.46,774,851,767,433,864,33.333333333333336,-0.292,-0.612,0.739
71895,1755603620121,17.36,-39.56,-20.46,771,853,769,417,855,34.48275862068966,-0.291,-0.611,0.739
71925,1755603620150,17.39,-39.55,-20.46,771,852,773,316,852,33.333333333333336,-0.29,-0.612,0.739
71984,1755603620209,17.38,-39.56,-20.48,775,854,772,417,857,34.48275862068966,-0.288,-0.612,0.738
72014,1755603620239,17.4,-39.56,-20.48,775,855,770,424,855,33.333333333333336,-0.288,-0.61,0.738
72043,1755603620268,17.39,-39.55,-20.5,777,856,774,347,858,34.48275862068966,-0.288,-0.611,0.739
72073,1755603620298,17.37,-39.52,-20.51,770,855,772,324,851,33.333333333333336,-0.287,-0.61,0.739
72102,1755603620327,17.37,-39.53,-20.53,774,859,778,388,848,34.48275862068966,-0.286,-0.611,0.737
72131,1755603620357,17.36,-39.57,-20.54,772,846,772,436,860,34.48275862068966,-0.287,-0.612,0.737
72161,1755603620386,17.36,-39.56,-20.54,769,848,776,398,852,33.333333333333336,-0.287,-0.613,0.738
72190,1755603620416,17.37,-39.53,-20.53,771,857,771,328,859,34.48275862068966,-0.288,-0.613,0.737
72250,1755603620475,17.35,-39.52,-20.53,768,854,768,433,852,33.333333333333336,-0.288,-0.613,0.736
72280,1755603620505,17.35,-39.49,-20.52,771,844,776,408,851,33.333333333333336,-0.288,-0.613,0.736
72309,1755603620534,17.32,-39.54,-20.54,779,845,773,348,846,34.48275862068966,-0.287,-0.612,0.737
72339,1755603620564,17.33,-39.51,-20.53,770,855,774,333,854,33.333333333333336,-0.287,-0.611,0.738
72398,1755603620623,17.32,-39.47,-20.54,773,856,769,428,863,33.333333333333336,-0.287,-0.611,0.736
72428,1755603620653,17.29,-39.48,-20.54,775,840,770,398,854,33.333333333333336,-0.288,-0.61,0.736
72457,1755603620682,17.29,-39.51,-20.54,775,845,773,329,850,34.48275862068966,-0.288,-0.611,0.736
72487,1755603620712,17.28,-39.55,-20.52,772,860,774,344,861,33.333333333333336,-0.289,-0.613,0.736
72516,1755603620741,17.25,-39.51,-20.51,771,857,769,440,860,34.48275862068966,-0.288,-0.613,0.737
72546,1755603620771,17.27,-39.49,-20.48,770,851,766,415,848,33.333333333333336,-0.287,-0.611,0.737
72566,1755603620791,17.26,-39.49,-20.47,769,852,768,395,859,50.0,-0.286,-0.612,0.737
72596,1755603620821,17.28,-39.49,-20.46,775,847,772,395,856,33.333333333333336,-0.286,-0.612,0.738
72625,1755603620850,17.23,-39.48,-20.46,774,856,770,320,859,34.48275862068966,-0.286,-0.611,0.738
72655,1755603620880,17.26,-39.45,-20.44,771,851,779,325,850,33.333333333333336,-0.287,-0.61,0.739
72684,1755603620909,17.22,-39.48,-20.48,774,850,771,411,856,34.48275862068966,-0.286,-0.61,0.739
72714,1755603620939,17.26,-39.45,-20.45,770,857,771,436,856,33.333333333333336,-0.287,-0.61,0.739
72743,1755603620968,17.25,-39.51,-20.47,774,853,773,353,854,34.48275862068966,-0.286,-0.61,0.737
72773,1755603620998,17.24,-39.5,-20.47,775,854,769,329,854,33.333333333333336,-0.287,-0.61,0.738
72803,1755603621028,17.24,-39.46,-20.46,771,852,771,360,852,33.333333333333336,-0.286,-0.609,0.737
72832,1755603621058,16.79,-39.49,-20.48,769,851,773,438,853,34.48275862068966,-0.286,-0.609,0.737
72862,1755603621087,16.76,-39.49,-20.5,776,851,773,408,850,33.333333333333336,-0.286,-0.609,0.736
72892,1755603621117,16.76,-39.52,-20.51,770,851,773,282,859,33.333333333333336,-0.287,-0.609,0.738
72912,1755603621137,16.77,-39.51,-20.5,772,851,774,415,858,50.0,-0.287,-0.61,0.74
72932,1755603621157,16.78,-39.51,-20.5,772,840,772,397,853,50.0,-0.286,-0.61,0.74
72961,1755603621186,16.76,-39.51,-20.52,773,840,778,384,858,34.48275862068966,-0.286,-0.61,0.739
72991,1755603621216,16.77,-39.54,-20.54,766,854,772,308,857,33.333333333333336,-0.286,-0.61,0.738
73041,1755603621266,16.81,-39.55,-20.54,775,853,774,359,864,50.0,-0.288,-0.612,0.739
73070,1755603621295,16.83,-39.53,-20.54,770,851,772,328,858,34.48275862068966,-0.287,-0.612,0.74
73100,1755603621325,16.82,-39.52,-20.56,771,859,772,422,858,33.333333333333336,-0.286,-0.612,0.738
73129,1755603621354,16.83,-39.53,-20.57,768,854,770,405,856,34.48275862068966,-0.286,-0.611,0.736
73188,1755603621413,16.87,-39.53,-20.54,772,854,771,322,859,34.48275862068966,-0.288,-0.613,0.739
73218,1755603621443,16.88,-39.54,-20.53,772,852,775,364,855,33.333333333333336,-0.287,-0.612,0.739
73247,1755603621473,16.9,-39.5,-20.52,772,850,774,392,855,34.48275862068966,-0.286,-0.611,0.739
73277,1755603621502,16.89,-39.49,-20.52,772,853,772,363,849,33.333333333333336,-0.284,-0.611,0.738
73306,1755603621531,16.88,-39.54,-20.54,771,848,771,317,859,34.48275862068966,-0.286,-0.613,0.737
73336,1755603621561,16.89,-39.55,-20.51,774,858,768,365,853,33.333333333333336,-0.288,-0.614,0.738
73365,1755603621590,16.91,-39.51,-20.48,775,845,767,427,850,34.48275862068966,-0.288,-0.613,0.739
73395,1755603621620,16.92,-39.49,-20.47,771,849,773,392,849,33.333333333333336,-0.288,-0.611,0.738
73424,1755603621649,16.94,-39.47,-20.45,773,851,771,326,854,34.48275862068966,-0.287,-0.61,0.736
73454,1755603621679,16.92,-39.5,-20.46,772,845,771,325,850,33.333333333333336,-0.287,-0.61,0.736
73483,1755603621708,16.9,-39.49,-20.45,771,854,775,431,856,34.48275862068966,-0.288,-0.61,0.737
73513,1755603621738,16.87,-39.55,-20.48,773,860,768,410,856,33.333333333333336,-0.288,-0.61,0.738
73542,1755603621767,16.87,-39.55,-20.47,770,853,768,340,859,34.48275862068966,-0.289,-0.611,0.739
73572,1755603621797,16.91,-39.5,-20.45,770,855,766,339,855,33.333333333333336,-0.289,-0.611,0.738
73602,1755603621827,16.89,-39.51,-20.45,773,849,765,402,845,33.333333333333336,-0.289,-0.611,0.737
73631,1755603621856,16.85,-39.57,-20.46,772,858,773,426,861,34.48275862068966,-0.289,-0.611,0.737
73661,1755603621886,16.86,-39.58,-20.43,774,845,771,391,859,33.333333333333336,-0.29,-0.61,0.738
73690,1755603621915,16.85,-39.59,-20.42,771,851,771,320,851,34.48275862068966,-0.289,-0.61,0.741
73720,1755603621945,16.84,-39.56,-20.41,765,851,777,356,861,33.333333333333336,-0.287,-0.61,0.742
73749,1755603621974,16.84,-39.56,-20.42,771,852,775,437,853,34.48275862068966,-0.286,-0.61,0.742
73779,1755603622004,16.82,-39.54,-20.42,774,853,772,407,855,33.333333333333336,-0.286,-0.612,0.741
73808,1755603622034,16.84,-39.53,-20.41,770,856,778,326,850,34.48275862068966,-0.287,-0.613,0.742
73838,1755603622064,16.83,-39.48,-20.38,769,848,772,338,854,33.333333333333336,-0.286,-0.612,0.74
73868,1755603622093,16.85,-39.51,-20.37,775,848,775,398,856,33.333333333333336,-0.287,-0.61,0.74
73898,1755603622123,16.82,-39.52,-20.37,765,862,769,420,842,33.333333333333336,-0.286,-0.609,0.74
73928,1755603622153,16.85,-39.48,-20.35,772,855,766,396,856,33.333333333333336,-0.287,-0.61,0.74
73957,1755603622182,16.87,-39.44,-20.34,777,848,772,320,858,34.48275862068966,-0.286,-0.61,0.741
73987,1755603622212,16.85,-39.48,-20.36,774,850,769,350,851,33.333333333333336,-0.285,-0.609,0.739
74016,1755603622241,16.87,-39.46,-20.35,774,855,771,436,849,34.48275862068966,-0.286,-0.609,0.739
74046,1755603622271,16.92,-39.45,-20.35,774,854,774,405,852,33.333333333333336,-0.287,-0.61,0.74
74076,1755603622301,17.37,-39.46,-20.34,777,855,772,330,846,33.333333333333336,-0.287,-0.61,0.742
74105,1755603622330,17.33,-39.48,-20.37,778,852,767,335,849,34.48275862068966,-0.287,-0.61,0.739
74134,1755603622359,17.35,-39.46,-20.36,769,850,772,420,856,34.48275862068966,-0.287,-0.609,0.739
74164,1755603622389,17.35,-39.43,-20.38,772,854,773,423,848,33.333333333333336,-0.286,-0.607,0.739
74223,1755603622448,17.34,-39.45,-20.42,774,859,771,318,857,33.333333333333336,-0.286,-0.61,0.74
74253,1755603622478,17.39,-39.44,-20.4,769,853,777,342,851,33.333333333333336,-0.288,-0.611,0.739
74282,1755603622507,17.35,-39.46,-20.43,770,856,767,438,849,34.48275862068966,-0.288,-0.61,0.738
74312,1755603622537,17.36,-39.45,-20.42,773,853,774,405,858,33.333333333333336,-0.289,-0.609,0.739
74341,1755603622567,17.39,-39.4,-20.42,773,843,770,326,857,34.48275862068966,-0.288,-0.606,0.739
74361,1755603622587,17.37,-39.41,-20.44,773,851,771,426,861,50.0,-0.287,-0.604,0.737
74381,1755603622607,17.34,-39.47,-20.47,775,855,771,425,852,50.0,-0.287,-0.605,0.736
74411,1755603622637,17.31,-39.49,-20.5,768,850,769,390,855,33.333333333333336,-0.288,-0.608,0.737
74441,1755603622666,17.32,-39.49,-20.51,774,857,777,319,848,33.333333333333336,-0.289,-0.61,0.74
74470,1755603622695,17.31,-39.46,-20.52,775,851,772,345,855,34.48275862068966,-0.288,-0.61,0.74
74500,1755603622725,17.32,-39.47,-20.51,776,845,778,429,851,33.333333333333336,-0.288,-0.61,0.739
74529,1755603622755,17.35,-39.5,-20.51,767,848,773,408,855,34.48275862068966,-0.287,-0.61,0.738
74549,1755603622774,17.34,-39.52,-20.52,775,853,773,393,854,50.0,-0.287,-0.609,0.738
74608,1755603622834,17.32,-39.5,-20.54,767,859,774,324,854,34.48275862068966,-0.287,-0.612,0.739
74638,1755603622864,17.35,-39.51,-20.52,769,854,767,333,852,33.333333333333336,-0.288,-0.612,0.738
74658,1755603622883,17.34,-39.5,-20.51,771,857,763,371,848,50.0,-0.288,-0.611,0.738
74688,1755603622913,17.33,-39.48,-20.5,771,857,779,353,863,33.333333333333336,-0.286,-0.61,0.74
74717,1755603622942,17.3,-39.47,-20.51,775,848,769,418,853,34.48275862068966,-0.284,-0.607,0.74
74747,1755603622972,17.29,-39.49,-20.53,776,845,778,417,861,33.333333333333336,-0.284,-0.607,0.741
74777,1755603623002,17.31,-39.49,-20.54,779,849,770,372,849,33.333333333333336,-0.285,-0.609,0.742
