timestamp_ms,recv_timestamp_ms,pitch,roll,yaw,flex1,flex2,flex3,flex4,flex5,sampling_hz,accel_x,accel_y,accel_z
150292,1755606742298,61.1,-26.87,4.25,788,777,817,387,845,50.0,-0.881,-0.217,0.428
150322,1755606742301,61.12,-26.87,4.24,796,777,817,310,848,33.333333333333336,-0.88,-0.217,0.427
150351,1755606742302,61.12,-26.87,4.25,794,772,814,352,850,34.48275862068966,-0.882,-0.217,0.427
150381,1755606742305,61.13,-26.87,4.25,793,780,814,387,848,33.333333333333336,-0.881,-0.217,0.427
150410,1755606742307,61.12,-26.88,4.25,794,771,814,385,854,34.48275862068966,-0.882,-0.217,0.427
150440,1755606742308,61.11,-26.89,4.26,793,776,813,349,842,33.333333333333336,-0.882,-0.217,0.427
150469,1755606742311,61.11,-26.89,4.26,792,777,812,349,846,34.48275862068966,-0.882,-0.217,0.427
150499,1755606742313,61.08,-26.9,4.26,793,773,814,388,849,33.333333333333336,-0.882,-0.217,0.427
150528,1755606742315,61.06,-26.91,4.26,790,768,807,406,844,34.48275862068966,-0.882,-0.218,0.428
150558,1755606742317,61.05,-26.9,4.27,795,776,820,383,848,33.333333333333336,-0.882,-0.219,0.428
150587,1755606742319,61.04,-26.9,4.27,789,768,816,356,852,34.48275862068966,-0.881,-0.22,0.428
150617,1755606742321,61.04,-26.9,4.28,795,779,815,393,848,33.333333333333336,-0.881,-0.22,0.428
150646,1755606742323,61.07,-26.9,4.29,793,779,817,404,848,34.48275862068966,-0.882,-0.22,0.429
150676,1755606742325,61.07,-26.89,4.29,794,780,815,391,847,33.333333333333336,-0.88,-0.219,0.429
150705,1755606742327,61.1,-26.87,4.29,793,769,807,356,849,34.48275862068966,-0.881,-0.218,0.43
150726,1755606742329,61.12,-26.87,4.29,796,769,811,399,841,47.61904761904762,-0.881,-0.218,0.429
150755,1755606742331,61.13,-26.87,4.27,792,774,814,309,843,34.48275862068966,-0.881,-0.218,0.428
150814,1755606742335,61.14,-26.87,4.28,791,775,816,402,847,34.48275862068966,-0.882,-0.218,0.428
150844,1755606742337,61.16,-26.87,4.27,793,775,815,395,852,33.333333333333336,-0.881,-0.217,0.427
150873,1755606742339,61.15,-26.88,4.26,795,779,817,354,852,34.48275862068966,-0.881,-0.219,0.427
150903,1755606742342,61.12,-26.9,4.29,796,780,816,352,847,33.333333333333336,-0.88,-0.219,0.427
150932,1755606742344,61.14,-26.94,4.29,795,771,817,406,847,34.48275862068966,-0.88,-0.219,0.427
150962,1755606742359,61.13,-26.92,4.3,792,780,815,416,845,33.333333333333336,-0.88,-0.219,0.426
150991,1755606742388,61.12,-26.89,4.32,794,770,818,380,852,34.48275862068966,-0.879,-0.219,0.427
151021,1755606742418,61.15,-26.89,4.31,793,768,816,369,848,33.333333333333336,-0.879,-0.219,0.426
151051,1755606742448,61.11,-26.87,4.34,795,778,817,387,847,33.333333333333336,-0.881,-0.22,0.426
151080,1755606742477,61.13,-26.89,4.33,795,777,814,429,844,34.48275862068966,-0.881,-0.219,0.425
151110,1755606742507,61.09,-26.86,4.35,789,777,810,402,849,33.333333333333336,-0.881,-0.219,0.425
151139,1755606742536,61.08,-26.89,4.36,795,776,819,366,846,34.48275862068966,-0.881,-0.219,0.425
151169,1755606742566,61.08,-26.9,4.36,795,771,816,351,849,33.333333333333336,-0.881,-0.22,0.426
151198,1755606742595,61.07,-26.9,4.37,793,775,816,395,848,34.48275862068966,-0.881,-0.22,0.426
151228,1755606742624,61.09,-26.9,4.38,795,774,815,404,848,33.333333333333336,-0.881,-0.22,0.426
151257,1755606742654,61.1,-26.89,4.39,794,775,810,359,847,34.48275862068966,-0.881,-0.22,0.425
151316,1755606742713,61.11,-26.93,4.41,795,770,814,373,849,34.48275862068966,-0.881,-0.219,0.425
151345,1755606742742,61.09,-26.93,4.42,794,772,814,390,842,34.48275862068966,-0.881,-0.219,0.425
151375,1755606742772,61.06,-26.93,4.43,795,776,812,388,842,33.333333333333336,-0.881,-0.218,0.425
151405,1755606742801,61.07,-26.93,4.43,796,769,811,356,845,33.333333333333336,-0.882,-0.219,0.426
151434,1755606742831,61.07,-26.93,4.45,792,776,813,373,843,34.48275862068966,-0.881,-0.22,0.426
151464,1755606742861,61.07,-26.94,4.46,796,776,816,407,850,33.333333333333336,-0.881,-0.22,0.426
151493,1755606742890,61.09,-26.94,4.47,792,780,817,407,851,34.48275862068966,-0.882,-0.22,0.426
151523,1755606742920,61.11,-26.95,4.47,790,778,816,326,849,33.333333333333336,-0.881,-0.219,0.425
151552,1755606742949,61.1,-26.95,4.47,794,767,814,342,846,34.48275862068966,-0.882,-0.219,0.425
151582,1755606742979,61.09,-26.96,4.49,795,775,812,384,846,33.333333333333336,-0.881,-0.219,0.425
151612,1755606743008,61.1,-26.98,4.49,796,777,812,415,846,33.333333333333336,-0.882,-0.22,0.425
151670,1755606743067,61.11,-26.99,4.51,796,776,813,335,844,34.48275862068966,-0.882,-0.219,0.426
151700,1755606743097,61.13,-26.98,4.51,794,776,811,369,848,33.333333333333336,-0.882,-0.219,0.425
151729,1755606743126,61.13,-26.97,4.51,795,769,814,401,847,34.48275862068966,-0.881,-0.218,0.425
151788,1755606743185,61.11,-27.0,4.52,791,767,817,352,841,34.48275862068966,-0.882,-0.219,0.425
151818,1755606743215,61.11,-27.01,4.54,797,777,815,361,843,33.333333333333336,-0.882,-0.219,0.427
151848,1755606743245,61.14,-26.98,4.54,793,778,816,404,849,33.333333333333336,-0.881,-0.218,0.427
151877,1755606743275,61.15,-26.98,4.54,794,770,817,392,844,34.48275862068966,-0.881,-0.218,0.426
151907,1755606743304,61.16,-26.99,4.54,791,774,815,352,843,33.333333333333336,-0.881,-0.218,0.424
151937,1755606743334,61.15,-26.99,4.54,789,778,818,333,844,33.333333333333336,-0.882,-0.218,0.424
151966,1755606743363,61.17,-27.01,4.55,793,773,816,373,845,34.48275862068966,-0.883,-0.219,0.425
151996,1755606743392,61.14,-27.0,4.56,791,775,815,398,847,33.333333333333336,-0.881,-0.218,0.425
152025,1755606743422,61.15,-27.0,4.55,792,769,815,380,849,34.48275862068966,-0.881,-0.218,0.426
152055,1755606743452,61.14,-26.99,4.54,795,778,817,357,849,33.333333333333336,-0.882,-0.219,0.425
152084,1755606743481,61.15,-26.98,4.53,795,775,812,348,846,34.48275862068966,-0.882,-0.22,0.424
152114,1755606743511,61.14,-27.0,4.54,793,774,813,405,852,33.333333333333336,-0.882,-0.221,0.424
152144,1755606743541,61.1,-27.06,4.55,790,774,818,396,849,33.333333333333336,-0.882,-0.221,0.424
152173,1755606743570,61.1,-27.07,4.57,792,779,812,372,841,34.48275862068966,-0.882,-0.22,0.426
152203,1755606743600,61.11,-27.06,4.58,794,779,814,344,847,33.333333333333336,-0.881,-0.219,0.427
152232,1755606743629,61.13,-27.05,4.58,796,774,814,365,845,34.48275862068966,-0.881,-0.219,0.426
152262,1755606743659,61.13,-27.06,4.57,791,773,817,408,850,33.333333333333336,-0.881,-0.219,0.424
152291,1755606743689,61.1,-27.08,4.58,791,774,813,365,850,34.48275862068966,-0.882,-0.22,0.424
152311,1755606743708,61.1,-27.1,4.59,791,778,815,399,847,50.0,-0.882,-0.22,0.424
152341,1755606743738,61.08,-27.1,4.59,793,780,819,368,843,33.333333333333336,-0.882,-0.22,0.425
152361,1755606743758,61.08,-27.1,4.6,794,774,818,398,847,50.0,-0.881,-0.22,0.425
152391,1755606743787,61.09,-27.1,4.6,791,775,811,360,849,33.333333333333336,-0.882,-0.22,0.427
152450,1755606743847,61.1,-27.09,4.61,790,778,817,373,844,33.333333333333336,-0.881,-0.221,0.425
152479,1755606743876,61.1,-27.09,4.61,790,772,810,407,852,34.48275862068966,-0.882,-0.22,0.425
152509,1755606743905,61.06,-27.06,4.64,796,768,816,395,847,33.333333333333336,-0.882,-0.221,0.425
152538,1755606743935,61.07,-27.06,4.64,792,771,817,352,846,34.48275862068966,-0.881,-0.221,0.426
152558,1755606743955,61.08,-27.05,4.64,790,778,818,391,854,50.0,-0.88,-0.221,0.426
152588,1755606743984,61.08,-27.05,4.65,796,775,818,361,850,33.333333333333336,-0.881,-0.22,0.427
152617,1755606744014,61.11,-27.05,4.66,797,773,816,385,847,34.48275862068966,-0.881,-0.219,0.426
152647,1755606744043,61.14,-27.06,4.66,795,774,816,416,848,33.333333333333336,-0.882,-0.219,0.425
152676,1755606744073,61.15,-27.08,4.66,793,776,812,411,848,34.48275862068966,-0.883,-0.22,0.425
152705,1755606744102,61.13,-27.09,4.68,792,767,816,359,848,34.48275862068966,-0.882,-0.22,0.425
152735,1755606744132,61.14,-27.11,4.68,789,775,813,362,848,33.333333333333336,-0.882,-0.219,0.426
152765,1755606744162,61.14,-27.13,4.69,795,780,813,407,841,33.333333333333336,-0.883,-0.22,0.426
152794,1755606744191,61.14,-27.13,4.69,790,779,820,403,848,34.48275862068966,-0.882,-0.219,0.426
152824,1755606744220,61.14,-27.12,4.7,792,777,816,378,845,33.333333333333336,-0.882,-0.219,0.425
152853,1755606744250,61.12,-27.15,4.71,792,779,815,339,846,34.48275862068966,-0.882,-0.22,0.425
152883,1755606744280,61.13,-27.15,4.72,789,776,811,337,854,33.333333333333336,-0.883,-0.219,0.426
152913,1755606744309,61.12,-27.14,4.73,796,773,816,400,848,33.333333333333336,-0.881,-0.218,0.426
152942,1755606744339,61.09,-27.12,4.74,791,781,814,392,846,34.48275862068966,-0.881,-0.218,0.426
152972,1755606744368,61.09,-27.13,4.73,795,778,816,361,854,33.333333333333336,-0.882,-0.22,0.425
153031,1755606744427,61.07,-27.11,4.75,793,777,813,413,849,33.333333333333336,-0.881,-0.221,0.425
153060,1755606744457,61.07,-27.14,4.74,793,778,810,413,842,34.48275862068966,-0.882,-0.221,0.426
153090,1755606744487,61.06,-27.14,4.76,793,777,810,331,850,33.333333333333336,-0.882,-0.221,0.426
153149,1755606744546,61.06,-27.13,4.77,793,777,817,380,848,33.333333333333336,-0.881,-0.219,0.425
153178,1755606744575,61.04,-27.13,4.76,788,769,812,417,847,34.48275862068966,-0.881,-0.219,0.425
153208,1755606744605,61.03,-27.11,4.76,795,768,816,384,847,33.333333333333336,-0.882,-0.219,0.426
153237,1755606744634,61.04,-27.11,4.77,789,774,813,343,849,34.48275862068966,-0.882,-0.22,0.426
153267,1755606744664,61.05,-27.1,4.77,795,777,815,361,845,33.333333333333336,-0.881,-0.221,0.427
153296,1755606744693,61.06,-27.1,4.77,794,781,816,414,845,34.48275862068966,-0.882,-0.221,0.426
153326,1755606744723,61.08,-27.1,4.78,791,777,815,410,849,33.333333333333336,-0.882,-0.221,0.425
153346,1755606744743,61.1,-27.11,4.79,789,773,817,409,853,50.0,-0.882,-0.22,0.425
153375,1755606744772,61.09,-27.12,4.81,791,770,818,408,846,34.48275862068966,-0.882,-0.22,0.425
153405,1755606744802,61.11,-27.12,4.82,796,769,809,347,845,33.333333333333336,-0.882,-0.219,0.426
153435,1755606744832,61.11,-27.11,4.82,796,768,814,357,845,33.333333333333336,-0.881,-0.219,0.425
153465,1755606744862,61.09,-27.12,4.83,792,773,818,405,848,33.333333333333336,-0.881,-0.219,0.426
153494,1755606744891,61.11,-27.12,4.83,794,777,814,412,845,34.48275862068966,-0.882,-0.22,0.426
153524,1755606744921,61.13,-27.12,4.84,793,772,813,376,844,33.333333333333336,-0.882,-0.22,0.425
153554,1755606744950,61.12,-27.13,4.86,791,779,817,353,846,33.333333333333336,-0.882,-0.221,0.425
153583,1755606744980,61.11,-27.13,4.88,797,768,818,378,843,34.48275862068966,-0.882,-0.22,0.425
153612,1755606745010,61.13,-27.12,4.89,794,779,818,414,849,34.48275862068966,-0.882,-0.218,0.426
153632,1755606745030,61.13,-27.1,4.9,797,774,817,372,843,50.0,-0.882,-0.217,0.427
153662,1755606745059,61.13,-27.09,4.9,794,776,814,420,847,33.333333333333336,-0.882,-0.217,0.426
153692,1755606745089,61.13,-27.08,4.91,795,774,814,403,851,33.333333333333336,-0.881,-0.218,0.425
153751,1755606745148,61.13,-27.09,4.92,789,774,813,366,847,33.333333333333336,-0.882,-0.219,0.426
153780,1755606745177,61.15,-27.07,4.93,788,771,809,395,848,34.48275862068966,-0.881,-0.218,0.427
153810,1755606745207,61.16,-27.05,4.93,790,781,814,389,846,33.333333333333336,-0.881,-0.217,0.427
153869,1755606745266,61.17,-27.05,4.93,791,774,814,340,850,34.48275862068966,-0.882,-0.217,0.426
153899,1755606745295,61.17,-27.03,4.93,795,776,815,378,847,33.333333333333336,-0.882,-0.216,0.425
153958,1755606745355,61.11,-27.03,4.93,790,773,822,385,847,33.333333333333336,-0.882,-0.219,0.425
153987,1755606745384,61.12,-27.03,4.95,788,773,815,309,846,34.48275862068966,-0.883,-0.22,0.426
154017,1755606745414,61.12,-27.02,4.96,791,777,818,344,848,33.333333333333336,-0.882,-0.22,0.427
154046,1755606745443,61.13,-27.03,4.98,794,777,811,393,846,34.48275862068966,-0.882,-0.219,0.427
154076,1755606745473,61.14,-27.01,5.01,790,778,815,393,850,33.333333333333336,-0.883,-0.219,0.427
154105,1755606745502,61.14,-27.01,5.03,795,773,810,350,844,34.48275862068966,-0.881,-0.217,0.425
154135,1755606745532,61.11,-27.02,5.03,792,778,819,345,848,33.333333333333336,-0.881,-0.215,0.425
154165,1755606745562,61.11,-27.02,5.02,792,776,808,381,840,33.333333333333336,-0.883,-0.216,0.427
154194,1755606745591,61.12,-27.01,5.03,796,776,813,421,848,34.48275862068966,-0.883,-0.218,0.427
154224,1755606745621,61.14,-27.01,5.04,790,776,811,381,855,33.333333333333336,-0.882,-0.219,0.426
154253,1755606745650,61.17,-27.05,5.04,789,776,818,345,845,34.48275862068966,-0.882,-0.218,0.425
154283,1755606745680,61.19,-27.07,5.05,794,772,814,360,851,33.333333333333336,-0.883,-0.218,0.426
154312,1755606745709,61.21,-27.04,5.05,794,777,816,412,852,34.48275862068966,-0.882,-0.216,0.426
154342,1755606745739,61.2,-27.04,5.04,792,778,816,395,844,33.333333333333336,-0.881,-0.216,0.425
154371,1755606745769,61.19,-27.04,5.02,788,774,817,356,854,34.48275862068966,-0.882,-0.217,0.425
154401,1755606745798,61.22,-27.05,5.0,793,776,816,349,845,33.333333333333336,-0.883,-0.218,0.424
154431,1755606745828,61.22,-27.06,4.99,796,767,816,397,846,33.333333333333336,-0.883,-0.219,0.423
154460,1755606745857,61.21,-27.07,4.99,795,776,815,412,851,34.48275862068966,-0.883,-0.22,0.423
154490,1755606745887,61.21,-27.08,4.99,794,774,817,375,845,33.333333333333336,-0.883,-0.22,0.423
154519,1755606745916,61.2,-27.09,4.99,794,782,816,349,848,34.48275862068966,-0.883,-0.219,0.424
154549,1755606745946,61.22,-27.09,4.99,791,779,810,374,852,33.333333333333336,-0.883,-0.219,0.425
154579,1755606745975,61.22,-27.07,4.99,795,776,818,411,848,33.333333333333336,-0.882,-0.22,0.424
154608,1755606746005,61.21,-27.07,4.98,791,772,808,390,843,34.48275862068966,-0.883,-0.221,0.425
154637,1755606746034,61.22,-27.08,4.98,792,769,812,347,850,34.48275862068966,-0.883,-0.221,0.424
154667,1755606746064,61.23,-27.08,5.0,788,771,812,347,847,33.333333333333336,-0.883,-0.221,0.424
154696,1755606746093,61.24,-27.09,4.99,790,777,816,390,853,34.48275862068966,-0.882,-0.22,0.424
154726,1755606746123,61.22,-27.07,5.0,794,773,813,404,844,33.333333333333336,-0.883,-0.219,0.424
154755,1755606746152,61.23,-27.08,4.99,793,781,816,348,848,34.48275862068966,-0.883,-0.22,0.424
154815,1755606746212,61.23,-27.07,5.0,788,776,816,399,848,33.333333333333336,-0.883,-0.22,0.424
154874,1755606746271,61.22,-27.08,5.02,793,774,815,377,845,33.333333333333336,-0.883,-0.219,0.424
154903,1755606746300,61.21,-27.08,5.03,795,780,817,348,853,34.48275862068966,-0.882,-0.218,0.424
154933,1755606746330,61.21,-27.08,5.02,788,779,811,367,847,33.333333333333336,-0.883,-0.218,0.424
154962,1755606746359,61.19,-27.09,5.02,791,771,817,411,845,34.48275862068966,-0.883,-0.219,0.424
154992,1755606746389,61.19,-27.1,5.02,790,774,816,396,845,33.333333333333336,-0.882,-0.221,0.424
155021,1755606746418,61.19,-27.12,5.04,796,776,813,337,843,34.48275862068966,-0.883,-0.221,0.424
155051,1755606746448,61.18,-27.13,5.05,793,778,814,359,850,33.333333333333336,-0.882,-0.221,0.424
155080,1755606746477,61.19,-27.14,5.04,795,776,819,396,847,34.48275862068966,-0.882,-0.22,0.424
155109,1755606746507,61.19,-27.13,5.05,796,776,812,402,844,34.48275862068966,-0.882,-0.219,0.424
155139,1755606746536,61.18,-27.13,5.05,792,770,812,369,845,33.333333333333336,-0.882,-0.219,0.424
155169,1755606746566,61.17,-27.13,5.05,795,777,813,344,845,33.333333333333336,-0.882,-0.22,0.424
155198,1755606746595,61.18,-27.14,5.06,793,780,817,383,849,34.48275862068966,-0.882,-0.22,0.424
155228,1755606746625,61.17,-27.16,5.06,796,774,815,402,845,33.333333333333336,-0.882,-0.22,0.424
155257,1755606746655,61.16,-27.14,5.06,795,782,816,376,849,34.48275862068966,-0.882,-0.221,0.424
155287,1755606746684,61.19,-27.12,5.53,790,767,816,352,849,33.333333333333336,-0.883,-0.221,0.423
155317,1755606746714,61.19,-27.16,5.53,793,779,815,370,854,33.333333333333336,-0.881,-0.221,0.422
155346,1755606746743,61.17,-27.18,5.55,795,775,813,405,848,34.48275862068966,-0.882,-0.221,0.424
155376,1755606746773,61.15,-27.18,5.56,792,776,812,411,849,33.333333333333336,-0.881,-0.222,0.425
155406,1755606746803,61.18,-27.17,5.57,793,774,818,370,845,33.333333333333336,-0.882,-0.222,0.425
155435,1755606746832,61.23,-27.17,5.58,796,775,817,365,847,34.48275862068966,-0.883,-0.223,0.425
155465,1755606746862,61.22,-27.17,5.61,794,779,817,398,849,33.333333333333336,-0.88,-0.222,0.423
155494,1755606746891,61.22,-27.19,5.61,792,778,809,401,845,34.48275862068966,-0.881,-0.22,0.423
155524,1755606746921,61.24,-27.22,5.62,792,779,816,365,844,33.333333333333336,-0.882,-0.218,0.424
155553,1755606746950,61.24,-27.21,5.64,791,772,817,338,849,34.48275862068966,-0.883,-0.217,0.425
155612,1755606747009,61.21,-27.23,5.62,793,774,810,398,843,34.48275862068966,-0.881,-0.218,0.424
155642,1755606747038,61.2,-27.22,5.62,789,777,813,381,847,33.333333333333336,-0.882,-0.219,0.425
155671,1755606747068,61.21,-27.2,5.63,795,776,813,342,846,34.48275862068966,-0.883,-0.219,0.424
155701,1755606747098,61.19,-27.21,5.63,796,775,814,344,850,33.333333333333336,-0.882,-0.219,0.424
155730,1755606747127,61.19,-27.21,5.62,795,774,814,392,849,34.48275862068966,-0.882,-0.219,0.425
155760,1755606747157,61.2,-27.19,5.61,794,774,811,398,848,33.333333333333336,-0.882,-0.219,0.425
155790,1755606747187,61.2,-27.16,5.61,796,775,815,375,849,33.333333333333336,-0.882,-0.219,0.424
155819,1755606747216,61.19,-27.17,5.6,795,780,810,346,846,34.48275862068966,-0.882,-0.22,0.423
155849,1755606747246,61.18,-27.18,5.6,790,774,816,396,849,33.333333333333336,-0.883,-0.221,0.424
155878,1755606747275,61.16,-27.18,5.61,794,767,814,425,846,34.48275862068966,-0.882,-0.22,0.424
155908,1755606747305,61.18,-27.18,5.59,790,775,814,405,843,33.333333333333336,-0.882,-0.22,0.425
155937,1755606747334,61.18,-27.17,5.59,789,769,818,369,847,34.48275862068966,-0.882,-0.221,0.426
155967,1755606747364,61.18,-27.17,5.58,793,779,814,358,848,33.333333333333336,-0.881,-0.221,0.425
156026,1755606747423,61.15,-27.17,5.55,791,774,815,412,845,34.48275862068966,-0.881,-0.222,0.425
156056,1755606747452,61.16,-27.18,5.53,795,768,814,373,849,33.333333333333336,-0.88,-0.221,0.425
156085,1755606747482,61.17,-27.17,5.5,790,775,813,356,850,34.48275862068966,-0.88,-0.22,0.426
156115,1755606747512,61.18,-27.18,5.46,798,768,814,388,843,33.333333333333336,-0.88,-0.22,0.427
156144,1755606747541,61.18,-27.17,5.45,795,772,817,405,843,34.48275862068966,-0.882,-0.22,0.426
156174,1755606747571,61.17,-27.16,5.43,793,773,813,386,844,33.333333333333336,-0.882,-0.22,0.425
156233,1755606747630,61.08,-27.2,5.41,788,775,817,361,847,33.333333333333336,-0.883,-0.225,0.422
156263,1755606747660,61.01,-27.26,5.45,794,771,817,403,844,33.333333333333336,-0.883,-0.229,0.422
156293,1755606747690,61.04,-27.31,5.49,792,774,816,359,844,33.333333333333336,-0.883,-0.229,0.425
156322,1755606747719,61.03,-27.32,5.52,795,779,814,340,846,34.48275862068966,-0.881,-0.228,0.426
156352,1755606747749,61.04,-27.35,5.55,795,769,813,339,848,33.333333333333336,-0.881,-0.228,0.428
156382,1755606747778,61.07,-27.37,5.6,791,777,817,377,843,33.333333333333336,-0.883,-0.228,0.428
156411,1755606747808,61.08,-27.39,5.66,793,776,812,401,844,34.48275862068966,-0.882,-0.227,0.428
156440,1755606747837,61.12,-27.42,5.71,791,774,818,387,845,34.48275862068966,-0.88,-0.224,0.427
156499,1755606747896,61.13,-27.4,5.73,790,777,810,362,850,34.48275862068966,-0.879,-0.218,0.426
156558,1755606747956,61.09,-27.39,5.72,790,774,811,398,848,34.48275862068966,-0.879,-0.219,0.425
156588,1755606747985,61.07,-27.4,5.71,789,779,815,361,852,33.333333333333336,-0.88,-0.219,0.426
156617,1755606748014,61.04,-27.39,5.72,794,774,816,355,842,34.48275862068966,-0.881,-0.22,0.426
156647,1755606748044,61.05,-27.38,5.73,790,770,813,387,846,33.333333333333336,-0.882,-0.222,0.428
156676,1755606748073,61.08,-27.39,5.77,795,771,818,394,849,34.48275862068966,-0.881,-0.223,0.427
156706,1755606748103,61.08,-27.41,5.79,794,774,819,371,848,33.333333333333336,-0.88,-0.222,0.426
156736,1755606748133,61.08,-27.42,5.81,794,774,814,358,853,33.333333333333336,-0.881,-0.221,0.426
156765,1755606748162,61.07,-27.42,5.82,795,770,821,389,849,34.48275862068966,-0.882,-0.22,0.425
156795,1755606748192,61.07,-27.43,5.83,794,778,822,419,849,33.333333333333336,-0.882,-0.22,0.424
156854,1755606748251,60.98,-27.45,5.85,788,775,816,353,850,34.48275862068966,-0.881,-0.22,0.424
156884,1755606748281,60.98,-27.44,5.87,793,779,816,357,844,33.333333333333336,-0.882,-0.222,0.427
156914,1755606748310,61.0,-27.46,5.88,795,774,814,402,845,33.333333333333336,-0.88,-0.223,0.427
157002,1755606748399,61.1,-27.44,5.91,795,769,818,360,845,33.333333333333336,-0.879,-0.22,0.427
157061,1755606748458,61.13,-27.42,5.89,792,774,815,420,851,33.333333333333336,-0.882,-0.219,0.425
157090,1755606748487,61.1,-27.39,5.9,794,781,816,391,847,34.48275862068966,-0.882,-0.219,0.424
157120,1755606748517,61.09,-27.39,5.89,795,778,815,359,848,33.333333333333336,-0.882,-0.22,0.423
157179,1755606748576,61.08,-27.4,5.89,792,774,816,417,849,33.333333333333336,-0.882,-0.223,0.425
157208,1755606748605,61.07,-27.38,5.91,789,771,814,405,846,34.48275862068966,-0.881,-0.222,0.425
157238,1755606748635,61.1,-27.38,5.9,792,780,817,353,848,33.333333333333336,-0.88,-0.22,0.426
157267,1755606748665,61.14,-27.35,5.87,795,771,820,364,849,34.48275862068966,-0.881,-0.218,0.426
157297,1755606748694,61.14,-27.34,5.83,795,781,814,410,844,33.333333333333336,-0.881,-0.217,0.423
157327,1755606748724,61.11,-27.34,5.8,793,775,818,414,847,33.333333333333336,-0.881,-0.219,0.422
157357,1755606748754,61.12,-27.34,5.78,793,768,814,401,851,33.333333333333336,-0.882,-0.222,0.423
157386,1755606748783,61.13,-27.36,5.77,794,774,816,349,848,34.48275862068966,-0.882,-0.225,0.423
157416,1755606748813,61.18,-27.38,5.77,794,775,816,370,848,33.333333333333336,-0.882,-0.225,0.424
157446,1755606748843,61.19,-27.38,5.77,789,770,815,396,846,33.333333333333336,-0.882,-0.223,0.424
157475,1755606748872,61.18,-27.39,5.78,790,777,822,391,849,34.48275862068966,-0.882,-0.223,0.423
157504,1755606748901,61.2,-27.4,5.77,794,774,815,358,849,34.48275862068966,-0.882,-0.222,0.422
157534,1755606748931,61.18,-27.41,5.76,795,777,816,348,848,33.333333333333336,-0.882,-0.223,0.422
157564,1755606748961,61.17,-27.43,5.75,791,777,814,393,846,33.333333333333336,-0.882,-0.223,0.421
157593,1755606748990,61.13,-27.44,5.76,791,776,822,413,849,34.48275862068966,-0.883,-0.224,0.42
157623,1755606749020,61.05,-27.48,5.78,792,773,811,368,847,33.333333333333336,-0.882,-0.224,0.42
157653,1755606749050,60.97,-27.51,5.77,793,771,813,352,846,33.333333333333336,-0.881,-0.224,0.423
157682,1755606749079,60.94,-27.5,5.78,795,768,814,385,848,34.48275862068966,-0.88,-0.226,0.426
157741,1755606749138,60.94,-27.45,5.79,791,774,816,399,844,34.48275862068966,-0.879,-0.226,0.43
157770,1755606749168,60.99,-27.42,5.78,795,780,814,346,848,34.48275862068966,-0.879,-0.226,0.429
157791,1755606749188,61.03,-27.4,5.78,790,775,821,393,848,47.61904761904762,-0.879,-0.226,0.427
157820,1755606749217,61.04,-27.4,5.78,794,771,817,347,845,34.48275862068966,-0.88,-0.225,0.425
157850,1755606749247,61.03,-27.39,5.8,795,774,817,362,844,33.333333333333336,-0.88,-0.224,0.424
157879,1755606749276,61.03,-27.41,5.79,794,776,813,392,849,34.48275862068966,-0.881,-0.223,0.425
157909,1755606749306,61.03,-27.42,5.79,793,780,818,394,845,33.333333333333336,-0.88,-0.223,0.426
157939,1755606749335,61.02,-27.42,5.8,792,772,811,354,848,33.333333333333336,-0.88,-0.224,0.427
157968,1755606749365,61.03,-27.45,5.81,791,777,810,337,852,34.48275862068966,-0.88,-0.224,0.427
157997,1755606749394,61.01,-27.46,5.83,792,770,817,386,848,34.48275862068966,-0.881,-0.224,0.427
158027,1755606749424,61.01,-27.47,5.84,797,781,816,419,848,33.333333333333336,-0.88,-0.224,0.427
158056,1755606749453,61.0,-27.48,5.85,793,775,812,390,850,34.48275862068966,-0.88,-0.223,0.427
158086,1755606749483,60.98,-27.48,5.86,791,777,814,350,846,33.333333333333336,-0.88,-0.223,0.427
158115,1755606749512,60.98,-27.47,5.87,795,779,818,333,846,34.48275862068966,-0.88,-0.224,0.428
158145,1755606749542,60.97,-27.47,5.88,793,778,817,387,846,33.333333333333336,-0.879,-0.225,0.428
158165,1755606749562,60.99,-27.47,5.88,794,774,816,341,845,50.0,-0.88,-0.225,0.428
158194,1755606749591,60.97,-27.46,5.9,793,776,819,409,843,34.48275862068966,-0.879,-0.224,0.427
158224,1755606749621,60.98,-27.46,5.9,794,773,817,343,847,33.333333333333336,-0.878,-0.224,0.427
158253,1755606749650,60.97,-27.47,5.91,797,780,814,331,850,34.48275862068966,-0.879,-0.223,0.427
158283,1755606749680,60.98,-27.47,5.91,795,771,810,343,847,33.333333333333336,-0.88,-0.223,0.428
158312,1755606749709,60.98,-27.47,5.91,790,771,811,409,848,34.48275862068966,-0.879,-0.223,0.428
158342,1755606749739,60.97,-27.47,5.91,793,777,815,400,844,33.333333333333336,-0.88,-0.223,0.428
158371,1755606749768,60.96,-27.47,5.92,788,774,810,367,846,34.48275862068966,-0.88,-0.224,0.428
158401,1755606749798,60.96,-27.46,5.92,790,779,816,314,844,33.333333333333336,-0.88,-0.224,0.429
158430,1755606749827,60.95,-27.44,5.94,791,768,817,366,846,34.48275862068966,-0.879,-0.224,0.429
158460,1755606749857,60.97,-27.43,5.93,790,778,815,385,841,33.333333333333336,-0.88,-0.224,0.428
158489,1755606749886,60.95,-27.42,5.95,794,775,820,369,848,34.48275862068966,-0.88,-0.223,0.429
158519,1755606749916,60.98,-27.42,5.94,795,774,817,334,849,33.333333333333336,-0.88,-0.223,0.429
158539,1755606749936,60.99,-27.42,5.95,798,778,817,401,849,50.0,-0.88,-0.223,0.43
158568,1755606749965,60.99,-27.43,5.94,794,779,811,364,849,34.48275862068966,-0.88,-0.223,0.429
158598,1755606749995,61.0,-27.42,5.95,789,780,817,390,851,33.333333333333336,-0.88,-0.223,0.428
158627,1755606750024,61.06,-27.43,5.95,798,779,817,404,849,34.48275862068966,-0.881,-0.224,0.428
158657,1755606750054,61.04,-27.42,5.96,793,768,813,370,844,33.333333333333336,-0.88,-0.224,0.426
158686,1755606750084,61.03,-27.45,5.96,790,772,809,330,844,34.48275862068966,-0.881,-0.223,0.426
158716,1755606750113,61.03,-27.46,5.96,792,776,815,345,842,33.333333333333336,-0.881,-0.222,0.426
158746,1755606750143,61.01,-27.46,5.95,797,774,817,385,846,33.333333333333336,-0.881,-0.222,0.426
158776,1755606750173,61.0,-27.46,5.95,793,777,817,393,851,33.333333333333336,-0.881,-0.223,0.427
158805,1755606750202,61.01,-27.48,5.95,788,776,814,345,847,34.48275862068966,-0.881,-0.225,0.427
158835,1755606750232,61.01,-27.5,5.97,797,772,815,330,855,33.333333333333336,-0.881,-0.225,0.428
158865,1755606750261,61.02,-27.49,5.99,790,771,812,386,847,33.333333333333336,-0.881,-0.224,0.429
158894,1755606750291,61.04,-27.48,6.0,789,776,810,406,848,34.48275862068966,-0.881,-0.223,0.428
158923,1755606750321,61.04,-27.47,6.01,789,774,813,374,842,34.48275862068966,-0.88,-0.222,0.427
158953,1755606750350,61.04,-27.48,6.01,794,777,812,339,851,33.333333333333336,-0.88,-0.222,0.425
159012,1755606750409,60.99,-27.51,6.02,795,778,810,391,843,34.48275862068966,-0.881,-0.223,0.425
159042,1755606750439,60.98,-27.53,6.02,794,772,816,408,848,33.333333333333336,-0.881,-0.223,0.426
