timestamp_ms,recv_timestamp_ms,pitch,roll,yaw,flex1,flex2,flex3,flex4,flex5,sampling_hz,accel_x,accel_y,accel_z
97034,1755602802179,17.27,10.1,-5.15,786,857,774,422,816,34.48275862068966,-0.291,0.171,0.949
97064,1755602802181,17.28,10.08,-5.15,784,843,775,352,809,33.333333333333336,-0.292,0.169,0.95
97093,1755602802183,17.3,10.08,-5.16,789,851,778,337,811,34.48275862068966,-0.291,0.169,0.95
97113,1755602802185,17.3,10.07,-5.16,790,841,778,384,810,50.0,-0.291,0.169,0.949
97142,1755602802186,17.29,10.05,-5.18,787,847,771,350,808,34.48275862068966,-0.292,0.169,0.949
97172,1755602802188,17.3,10.06,-5.19,786,860,777,428,816,33.333333333333336,-0.293,0.169,0.951
97201,1755602802190,17.32,10.06,-5.2,788,853,773,429,820,34.48275862068966,-0.293,0.168,0.95
97231,1755602802192,17.33,10.07,-5.2,796,854,776,382,818,33.333333333333336,-0.293,0.169,0.949
97261,1755602802194,17.31,10.07,-5.21,785,854,772,349,811,33.333333333333336,-0.293,0.169,0.949
97290,1755602802196,17.32,10.07,-5.23,784,846,771,391,811,34.48275862068966,-0.293,0.168,0.949
97320,1755602802198,17.33,10.06,-5.23,787,860,778,434,808,33.333333333333336,-0.294,0.168,0.95
97349,1755602802200,17.31,10.06,-5.23,782,851,776,401,812,34.48275862068966,-0.292,0.168,0.949
97379,1755602802202,17.33,10.06,-5.25,791,855,776,329,814,33.333333333333336,-0.292,0.168,0.95
97408,1755602802204,17.34,10.07,-5.25,793,851,777,339,818,34.48275862068966,-0.292,0.168,0.95
97438,1755602802206,17.33,10.08,-5.25,789,840,773,417,819,33.333333333333336,-0.292,0.169,0.949
97467,1755602802208,17.32,10.08,-5.27,792,857,770,411,816,34.48275862068966,-0.291,0.17,0.949
97497,1755602802210,17.32,10.08,-5.28,786,855,771,329,815,33.333333333333336,-0.291,0.168,0.949
97526,1755602802213,17.34,10.07,-5.29,791,854,776,318,812,34.48275862068966,-0.293,0.167,0.95
97585,1755602802217,17.36,10.09,-5.26,785,842,774,427,806,34.48275862068966,-0.293,0.168,0.949
97615,1755602802219,17.35,10.08,-5.25,783,855,771,378,810,33.333333333333336,-0.294,0.169,0.948
97644,1755602802221,17.34,10.07,-5.24,778,857,766,323,815,34.48275862068966,-0.294,0.169,0.949
97674,1755602802224,17.35,10.06,-5.24,785,852,775,362,814,33.333333333333336,-0.292,0.171,0.95
97703,1755602802225,17.35,10.06,-5.24,789,854,774,423,814,34.48275862068966,-0.292,0.171,0.95
97733,1755602802227,17.33,10.05,-5.25,788,855,777,392,816,33.333333333333336,-0.291,0.169,0.95
97762,1755602802229,17.34,10.04,-5.27,785,853,772,320,812,34.48275862068966,-0.293,0.169,0.951
97791,1755602802231,17.35,10.04,-5.27,781,857,779,297,819,34.48275862068966,-0.295,0.168,0.95
97821,1755602802234,17.36,10.03,-5.26,789,849,775,405,812,33.333333333333336,-0.296,0.166,0.95
97850,1755602802236,17.36,10.02,-5.25,782,854,780,416,815,34.48275862068966,-0.295,0.167,0.95
97880,1755602802266,17.35,10.02,-5.24,790,841,778,327,817,33.333333333333336,-0.293,0.169,0.95
97909,1755602802295,17.34,10.03,-5.25,790,850,775,327,814,34.48275862068966,-0.291,0.17,0.949
97968,1755602802354,17.32,10.06,-5.3,792,845,779,405,818,34.48275862068966,-0.293,0.168,0.95
97997,1755602802383,17.32,10.06,-5.31,789,850,775,362,810,34.48275862068966,-0.294,0.168,0.95
98027,1755602802413,17.33,10.06,-5.32,783,851,779,325,812,33.333333333333336,-0.294,0.169,0.948
98056,1755602802442,17.32,10.05,-5.33,785,854,772,381,813,34.48275862068966,-0.294,0.17,0.948
98116,1755602802501,17.34,10.04,-5.36,788,853,769,399,807,33.333333333333336,-0.293,0.169,0.95
98145,1755602802531,17.34,10.05,-5.37,784,850,770,323,815,34.48275862068966,-0.293,0.17,0.95
98204,1755602802590,17.35,10.03,-5.39,787,857,775,417,810,33.333333333333336,-0.295,0.168,0.949
98234,1755602802620,17.35,10.02,-5.38,785,850,770,420,808,33.333333333333336,-0.295,0.168,0.949
98263,1755602802649,17.36,10.01,-5.39,782,851,772,331,818,34.48275862068966,-0.294,0.169,0.95
98293,1755602802679,17.35,10.02,-5.39,787,848,771,333,812,33.333333333333336,-0.294,0.168,0.95
98352,1755602802738,17.34,10.02,-5.4,791,854,773,427,809,33.333333333333336,-0.294,0.168,0.95
98381,1755602802767,17.35,10.02,-5.41,786,849,772,379,816,34.48275862068966,-0.294,0.168,0.95
98411,1755602802796,17.33,10.04,-5.4,788,847,779,335,813,33.333333333333336,-0.294,0.169,0.949
98440,1755602802826,17.34,10.03,-5.41,791,855,776,370,820,34.48275862068966,-0.294,0.169,0.949
98470,1755602802856,17.33,10.03,-5.42,790,848,772,430,816,33.333333333333336,-0.293,0.169,0.949
98529,1755602802915,17.32,10.02,-5.43,790,853,774,333,813,33.333333333333336,-0.294,0.169,0.949
98558,1755602802944,17.32,10.01,-5.44,782,861,773,337,815,34.48275862068966,-0.295,0.168,0.949
98588,1755602802974,17.35,10.0,-5.45,787,853,772,433,814,33.333333333333336,-0.295,0.167,0.949
98618,1755602803004,17.34,10.0,-5.44,788,856,776,429,812,33.333333333333336,-0.295,0.167,0.949
98647,1755602803033,17.37,10.0,-5.45,787,845,777,354,809,34.48275862068966,-0.295,0.168,0.949
98677,1755602803062,17.38,10.01,-5.45,792,845,776,334,814,33.333333333333336,-0.294,0.168,0.949
98706,1755602803092,17.37,10.02,-5.46,790,860,777,371,808,34.48275862068966,-0.293,0.168,0.949
98736,1755602803121,17.38,10.02,-5.47,793,856,772,430,808,33.333333333333336,-0.293,0.168,0.949
98765,1755602803151,17.37,10.01,-5.48,790,841,774,381,815,34.48275862068966,-0.294,0.168,0.948
98795,1755602803180,17.36,10.02,-5.48,788,846,774,333,814,33.333333333333336,-0.295,0.167,0.949
98824,1755602803210,17.37,10.03,-5.47,788,855,770,343,815,34.48275862068966,-0.296,0.167,0.949
98853,1755602803239,17.37,10.05,-5.46,783,851,774,418,812,34.48275862068966,-0.295,0.168,0.948
98883,1755602803268,17.37,10.04,-5.47,787,852,771,401,812,33.333333333333336,-0.294,0.169,0.948
98912,1755602803298,17.36,10.03,-5.49,781,859,774,316,812,34.48275862068966,-0.294,0.168,0.948
98941,1755602803327,17.35,10.04,-5.49,786,859,772,330,815,34.48275862068966,-0.295,0.168,0.949
98971,1755602803357,17.31,10.04,-5.48,789,849,775,406,812,33.333333333333336,-0.295,0.168,0.948
99000,1755602803386,17.3,10.02,-5.47,790,845,774,412,816,34.48275862068966,-0.294,0.168,0.948
99030,1755602803416,17.28,10.01,-5.48,785,848,773,325,813,33.333333333333336,-0.294,0.169,0.949
99060,1755602803445,17.25,10.01,-5.49,790,850,778,330,817,33.333333333333336,-0.293,0.169,0.949
99089,1755602803475,17.26,10.02,-5.5,787,854,775,389,809,34.48275862068966,-0.293,0.168,0.95
99119,1755602803504,17.25,10.02,-5.51,788,852,774,414,814,33.333333333333336,-0.293,0.167,0.95
99148,1755602803534,17.27,10.0,-5.53,788,856,780,376,811,34.48275862068966,-0.293,0.168,0.949
99177,1755602803563,17.28,10.01,-5.52,789,850,776,331,819,34.48275862068966,-0.294,0.168,0.95
99207,1755602803592,17.27,10.01,-5.52,785,858,777,370,810,33.333333333333336,-0.293,0.167,0.951
99236,1755602803622,17.28,10.02,-5.52,785,858,773,427,810,34.48275862068966,-0.293,0.167,0.951
99295,1755602803681,17.3,10.0,-5.53,788,855,774,282,813,34.48275862068966,-0.293,0.168,0.949
99325,1755602803711,17.31,9.99,-5.53,789,857,775,310,816,33.333333333333336,-0.293,0.168,0.95
99354,1755602803740,17.33,9.98,-5.54,789,853,774,397,812,34.48275862068966,-0.293,0.168,0.95
99384,1755602803769,17.32,9.98,-5.54,785,863,777,395,809,33.333333333333336,-0.293,0.169,0.95
99413,1755602803799,17.33,9.97,-5.55,783,853,774,338,816,34.48275862068966,-0.292,0.169,0.95
99472,1755602803858,17.36,9.95,-5.57,789,853,775,382,813,34.48275862068966,-0.293,0.168,0.95
99501,1755602803887,17.38,9.93,-5.58,788,856,772,425,815,34.48275862068966,-0.294,0.168,0.95
99531,1755602803917,17.39,9.93,-5.59,785,855,773,383,815,33.333333333333336,-0.295,0.166,0.95
99561,1755602803946,17.4,9.92,-5.58,790,857,778,312,816,33.333333333333336,-0.295,0.166,0.95
99590,1755602803976,17.43,9.92,-5.6,790,852,771,351,806,34.48275862068966,-0.295,0.167,0.95
99620,1755602804006,17.44,9.93,-5.6,790,845,772,429,808,33.333333333333336,-0.296,0.167,0.95
99650,1755602804035,17.47,9.93,-5.6,789,847,778,404,811,33.333333333333336,-0.295,0.168,0.95
99679,1755602804065,17.47,9.93,-5.6,788,844,779,333,810,34.48275862068966,-0.296,0.167,0.949
99708,1755602804094,17.45,9.91,-5.6,784,849,777,337,816,34.48275862068966,-0.296,0.166,0.949
99737,1755602804123,17.49,9.88,-5.6,788,846,777,428,811,34.48275862068966,-0.295,0.166,0.95
99767,1755602804153,17.5,9.89,-5.61,781,853,770,428,821,33.333333333333336,-0.295,0.167,0.95
99796,1755602804182,17.5,9.89,-5.61,789,844,775,350,813,34.48275862068966,-0.296,0.167,0.949
99826,1755602804211,17.53,9.87,-5.62,791,856,777,340,812,33.333333333333336,-0.296,0.167,0.949
99855,1755602804241,17.52,9.86,-5.62,789,854,774,415,815,34.48275862068966,-0.297,0.167,0.949
99885,1755602804271,17.52,9.86,-5.62,786,847,780,432,820,33.333333333333336,-0.297,0.165,0.95
99915,1755602804301,17.51,9.87,-5.62,787,854,777,396,812,33.333333333333336,-0.296,0.165,0.95
99944,1755602804330,17.53,9.87,-5.63,789,852,767,328,814,34.48275862068966,-0.295,0.166,0.949
99974,1755602804360,17.55,9.86,-5.65,786,853,773,347,813,33.333333333333336,-0.297,0.166,0.949
100003,1755602804389,17.52,9.86,-5.66,788,859,776,431,811,34.48275862068966,-0.298,0.166,0.949
100033,1755602804419,17.52,9.85,-5.66,788,854,775,408,812,33.333333333333336,-0.298,0.166,0.949
100053,1755602804439,17.51,9.84,-5.67,790,849,776,385,817,50.0,-0.298,0.166,0.949
100083,1755602804468,17.49,9.85,-5.67,787,853,780,383,811,33.333333333333336,-0.297,0.166,0.949
100112,1755602804498,17.48,9.85,-5.7,790,857,781,315,816,34.48275862068966,-0.296,0.166,0.95
100142,1755602804527,17.47,9.85,-5.71,783,848,776,338,816,33.333333333333336,-0.297,0.166,0.95
100171,1755602804557,17.46,9.86,-5.73,788,848,769,429,815,34.48275862068966,-0.296,0.166,0.95
100200,1755602804586,17.47,9.84,-5.75,788,848,770,414,813,34.48275862068966,-0.298,0.165,0.949
100259,1755602804645,17.47,9.84,-5.77,791,855,774,337,805,34.48275862068966,-0.299,0.164,0.951
100318,1755602804704,17.47,9.85,-5.77,788,850,775,412,815,34.48275862068966,-0.298,0.165,0.949
100348,1755602804734,17.48,9.83,-5.79,783,850,768,373,815,33.333333333333336,-0.297,0.165,0.949
100378,1755602804763,17.5,9.82,-5.79,792,853,773,319,819,33.333333333333336,-0.298,0.165,0.95
100407,1755602804793,17.5,9.82,-5.79,786,851,775,342,810,34.48275862068966,-0.297,0.165,0.95
100437,1755602804822,17.51,9.81,-5.79,784,853,779,423,812,33.333333333333336,-0.298,0.164,0.95
100466,1755602804851,17.52,9.79,-5.79,791,852,779,398,816,34.48275862068966,-0.298,0.164,0.95
100495,1755602804881,17.51,9.81,-5.78,788,858,775,316,811,34.48275862068966,-0.298,0.165,0.95
100525,1755602804910,17.54,9.8,-5.79,783,854,776,344,820,33.333333333333336,-0.297,0.166,0.949
100554,1755602804940,17.54,9.78,-5.8,788,857,774,410,811,34.48275862068966,-0.296,0.165,0.948
100583,1755602804969,17.52,9.77,-5.81,789,850,776,416,818,34.48275862068966,-0.297,0.165,0.949
100613,1755602804999,17.52,9.77,-5.82,789,851,777,344,811,33.333333333333336,-0.297,0.164,0.95
100672,1755602805058,17.52,9.71,-5.82,792,854,773,398,812,33.333333333333336,-0.298,0.163,0.95
100701,1755602805087,17.51,9.71,-5.83,786,862,773,415,815,34.48275862068966,-0.297,0.164,0.95
100731,1755602805116,17.51,9.72,-5.83,786,850,776,370,810,33.333333333333336,-0.297,0.164,0.951
100790,1755602805176,17.49,9.69,-5.85,789,851,773,362,814,33.333333333333336,-0.297,0.163,0.949
100819,1755602805206,17.48,9.69,-5.86,786,850,777,390,817,34.48275862068966,-0.298,0.163,0.951
100849,1755602805235,17.5,9.69,-5.86,786,848,770,385,814,33.333333333333336,-0.299,0.163,0.951
100879,1755602805265,17.49,9.69,-5.86,783,848,769,328,814,33.333333333333336,-0.299,0.163,0.95
100908,1755602805294,17.51,9.67,-5.86,792,850,773,322,813,34.48275862068966,-0.299,0.161,0.95
100958,1755602805344,17.52,9.69,-5.83,785,854,780,321,816,50.0,-0.298,0.162,0.952
100987,1755602805373,17.56,9.69,-5.83,789,854,774,403,812,34.48275862068966,-0.297,0.163,0.951
101046,1755602805432,17.57,9.66,-5.85,787,855,771,332,813,34.48275862068966,-0.298,0.162,0.95
101076,1755602805462,17.57,9.66,-5.85,789,853,767,321,819,33.333333333333336,-0.3,0.161,0.952
101105,1755602805491,17.56,9.71,-5.83,790,860,777,385,813,34.48275862068966,-0.3,0.162,0.952
101135,1755602805520,17.56,9.72,-5.82,787,853,775,422,815,33.333333333333336,-0.297,0.163,0.95
101164,1755602805550,17.56,9.71,-5.83,789,847,770,371,814,34.48275862068966,-0.296,0.163,0.949
101193,1755602805579,17.53,9.71,-5.83,790,845,769,333,819,34.48275862068966,-0.297,0.163,0.95
101253,1755602805639,17.52,9.75,-5.84,782,850,774,435,809,33.333333333333336,-0.297,0.164,0.95
101282,1755602805668,17.5,9.75,-5.83,795,851,774,368,815,34.48275862068966,-0.297,0.164,0.949
101312,1755602805698,17.5,9.73,-5.83,782,847,774,325,823,33.333333333333336,-0.297,0.165,0.949
101341,1755602805727,17.5,9.72,-5.83,787,852,776,336,811,34.48275862068966,-0.297,0.165,0.95
101371,1755602805757,17.5,9.73,-5.83,789,857,775,410,819,33.333333333333336,-0.296,0.165,0.951
101400,1755602805786,17.51,9.74,-5.84,788,853,780,407,812,34.48275862068966,-0.296,0.165,0.95
101430,1755602805815,17.51,9.72,-5.85,787,848,778,353,811,33.333333333333336,-0.297,0.165,0.949
101459,1755602805845,17.49,9.71,-5.85,788,845,778,327,815,34.48275862068966,-0.298,0.163,0.949
101518,1755602805904,17.53,9.71,-5.85,785,853,777,426,813,34.48275862068966,-0.3,0.163,0.951
101548,1755602805933,17.55,9.72,-5.83,787,852,769,384,817,33.333333333333336,-0.3,0.163,0.95
101577,1755602805963,17.55,9.73,-5.83,786,844,774,334,811,34.48275862068966,-0.297,0.164,0.949
101606,1755602805992,17.57,9.73,-5.85,789,850,774,366,808,34.48275862068966,-0.296,0.165,0.949
101665,1755602806051,17.57,9.74,-5.89,795,849,770,400,810,34.48275862068966,-0.296,0.165,0.95
101724,1755602806110,17.57,9.75,-5.91,788,848,772,345,820,34.48275862068966,-0.297,0.164,0.949
101754,1755602806139,17.56,9.76,-5.92,785,850,778,420,813,33.333333333333336,-0.297,0.165,0.95
101783,1755602806168,17.56,9.75,-5.94,785,850,773,420,816,34.48275862068966,-0.297,0.165,0.949
101812,1755602806198,17.55,9.74,-5.95,790,851,774,340,814,34.48275862068966,-0.298,0.164,0.949
101842,1755602806227,17.55,9.73,-5.96,789,851,770,333,815,33.333333333333336,-0.298,0.164,0.951
101871,1755602806257,17.56,9.74,-5.96,786,852,770,399,814,34.48275862068966,-0.297,0.164,0.95
101901,1755602806287,17.56,9.74,-5.97,790,852,781,418,814,33.333333333333336,-0.296,0.165,0.949
101930,1755602806316,17.54,9.73,-5.99,789,848,769,365,817,34.48275862068966,-0.296,0.165,0.948
101960,1755602806346,17.55,9.72,-6.02,787,852,774,335,815,33.333333333333336,-0.297,0.165,0.949
101989,1755602806375,17.54,9.72,-6.03,789,847,779,354,808,34.48275862068966,-0.298,0.165,0.949
102019,1755602806405,17.54,9.72,-6.03,782,846,774,374,814,33.333333333333336,-0.299,0.164,0.949
102048,1755602806434,17.56,9.71,-6.04,786,851,770,381,816,34.48275862068966,-0.298,0.165,0.948
102107,1755602806493,17.56,9.7,-6.06,787,849,776,344,818,34.48275862068966,-0.3,0.163,0.949
102137,1755602806523,17.59,9.7,-6.07,789,855,776,412,821,33.333333333333336,-0.3,0.163,0.949
102167,1755602806553,17.6,9.72,-6.08,786,841,779,411,813,33.333333333333336,-0.298,0.164,0.948
102196,1755602806582,17.6,9.71,-6.11,791,850,773,352,809,34.48275862068966,-0.297,0.165,0.948
102226,1755602806612,17.6,9.71,-6.15,786,854,776,316,818,33.333333333333336,-0.297,0.164,0.948
102255,1755602806641,17.6,9.72,-6.17,787,850,774,367,823,34.48275862068966,-0.298,0.164,0.948
102285,1755602806671,17.6,9.7,-6.2,785,855,772,422,811,33.333333333333336,-0.299,0.162,0.947
102314,1755602806700,17.61,9.69,-6.21,788,851,780,401,814,34.48275862068966,-0.299,0.163,0.947
102344,1755602806730,17.61,9.7,-6.23,788,857,773,332,820,33.333333333333336,-0.298,0.164,0.948
102374,1755602806760,17.63,9.7,-6.27,782,850,779,343,811,33.333333333333336,-0.298,0.164,0.947
102433,1755602806819,17.65,9.66,-6.31,788,847,774,411,810,33.333333333333336,-0.3,0.162,0.948
102462,1755602806848,17.65,9.67,-6.32,785,843,780,337,816,34.48275862068966,-0.3,0.162,0.948
102492,1755602806878,17.66,9.66,-6.35,785,848,770,313,813,33.333333333333336,-0.301,0.162,0.948
102522,1755602806908,17.67,9.66,-6.36,787,852,776,372,811,33.333333333333336,-0.301,0.161,0.947
102551,1755602806937,17.7,9.64,-6.39,787,858,776,382,817,34.48275862068966,-0.301,0.161,0.946
102581,1755602806966,17.73,9.61,-6.41,785,853,776,378,813,33.333333333333336,-0.302,0.161,0.946
102610,1755602806996,17.77,9.59,-6.44,788,850,771,317,810,34.48275862068966,-0.303,0.16,0.947
102639,1755602807025,17.83,9.59,-6.45,782,844,776,350,808,34.48275862068966,-0.304,0.159,0.948
102669,1755602807055,17.84,9.58,-6.44,787,857,778,406,809,33.333333333333336,-0.305,0.158,0.948
102698,1755602807084,17.85,9.58,-6.42,787,840,769,393,813,34.48275862068966,-0.304,0.158,0.948
102728,1755602807114,17.86,9.58,-6.43,791,849,778,320,817,33.333333333333336,-0.302,0.16,0.948
102757,1755602807143,17.85,9.59,-6.43,787,852,776,332,813,34.48275862068966,-0.301,0.162,0.948
102816,1755602807202,17.83,9.57,-6.48,790,850,774,420,815,33.333333333333336,-0.302,0.16,0.947
102845,1755602807231,17.82,9.56,-6.5,790,845,776,339,810,34.48275862068966,-0.303,0.16,0.947
102875,1755602807262,17.84,9.55,-6.53,778,852,770,333,808,33.333333333333336,-0.304,0.159,0.949
102895,1755602807281,17.84,9.56,-6.53,785,850,778,381,815,50.0,-0.306,0.159,0.949
102925,1755602807310,17.85,9.56,-6.55,789,855,769,349,814,33.333333333333336,-0.305,0.157,0.948
102954,1755602807340,17.87,9.55,-6.56,784,847,775,415,816,34.48275862068966,-0.305,0.158,0.948
102983,1755602807369,17.88,9.53,-6.58,786,852,766,422,815,34.48275862068966,-0.305,0.159,0.948
103013,1755602807399,17.95,9.5,-6.62,783,855,776,353,815,33.333333333333336,-0.306,0.158,0.948
103043,1755602807429,17.98,9.49,-6.61,784,853,776,323,811,33.333333333333336,-0.31,0.156,0.95
103072,1755602807458,18.02,9.47,-6.64,785,853,771,346,819,34.48275862068966,-0.309,0.157,0.948
103102,1755602807487,18.12,9.43,-6.69,785,858,776,416,814,33.333333333333336,-0.307,0.158,0.945
103131,1755602807517,18.16,9.36,-6.71,792,851,776,383,817,34.48275862068966,-0.309,0.158,0.945
103160,1755602807546,18.15,9.33,-6.71,790,849,774,326,814,34.48275862068966,-0.31,0.157,0.947
103190,1755602807576,18.23,9.32,-6.73,788,854,771,351,819,33.333333333333336,-0.311,0.155,0.951
103220,1755602807605,18.24,9.35,-6.7,786,852,770,432,817,33.333333333333336,-0.31,0.155,0.951
103279,1755602807664,18.26,9.35,-6.7,784,851,771,342,814,33.333333333333336,-0.307,0.157,0.947
103308,1755602807694,18.26,9.34,-6.72,790,857,777,344,810,34.48275862068966,-0.308,0.159,0.947
103337,1755602807724,18.27,9.33,-6.73,790,849,777,395,817,34.48275862068966,-0.308,0.158,0.946
103358,1755602807744,18.3,9.32,-6.75,792,854,774,331,817,47.61904761904762,-0.309,0.157,0.946
103387,1755602807773,18.3,9.32,-6.76,786,849,780,391,814,34.48275862068966,-0.311,0.155,0.948
103417,1755602807802,18.31,9.33,-6.75,784,849,774,419,819,33.333333333333336,-0.312,0.156,0.948
103446,1755602807832,18.31,9.34,-6.74,784,850,774,355,820,34.48275862068966,-0.312,0.156,0.946
103475,1755602807862,18.31,9.31,-6.73,789,851,773,334,816,34.48275862068966,-0.312,0.155,0.945
103505,1755602807891,18.29,9.29,-6.72,785,851,771,380,808,33.333333333333336,-0.313,0.154,0.946
103535,1755602807921,18.32,9.28,-6.71,784,856,776,420,812,33.333333333333336,-0.313,0.154,0.947
103564,1755602807950,18.35,9.32,-6.71,787,848,778,360,811,34.48275862068966,-0.313,0.155,0.947
103594,1755602807979,18.33,9.35,-6.71,784,851,776,309,808,33.333333333333336,-0.311,0.158,0.945
103623,1755602808009,18.37,9.33,-6.74,786,855,774,328,812,34.48275862068966,-0.309,0.159,0.943
103652,1755602808038,18.38,9.29,-6.8,786,856,771,413,809,34.48275862068966,-0.31,0.157,0.944
103682,1755602808068,18.35,9.29,-6.83,789,854,774,399,815,33.333333333333336,-0.311,0.156,0.946
103711,1755602808097,18.39,9.32,-6.85,790,852,775,314,812,34.48275862068966,-0.313,0.154,0.946
103741,1755602808126,18.4,9.33,-6.87,787,849,774,336,811,33.333333333333336,-0.312,0.155,0.943
103770,1755602808156,18.41,9.31,-6.91,788,852,768,425,809,34.48275862068966,-0.312,0.158,0.941
103799,1755602808185,18.42,9.28,-6.96,783,854,770,422,819,34.48275862068966,-0.313,0.158,0.943
103829,1755602808215,18.43,9.27,-7.01,786,855,770,354,817,33.333333333333336,-0.314,0.155,0.944
103858,1755602808244,18.47,9.25,-7.03,784,852,769,348,815,34.48275862068966,-0.315,0.152,0.945
103917,1755602808303,18.52,9.23,-7.06,789,848,773,416,814,34.48275862068966,-0.318,0.151,0.944
103947,1755602808333,18.56,9.2,-7.06,782,861,775,388,818,33.333333333333336,-0.318,0.151,0.941
103977,1755602808362,18.58,9.18,-7.04,784,856,772,329,817,33.333333333333336,-0.318,0.152,0.942
104035,1755602808421,18.62,9.18,-7.0,788,847,777,411,817,34.48275862068966,-0.315,0.152,0.943
104065,1755602808451,18.65,9.17,-7.03,781,845,772,410,813,33.333333333333336,-0.313,0.152,0.943
104095,1755602808480,18.66,9.17,-7.06,783,853,777,341,818,33.333333333333336,-0.314,0.154,0.943
104124,1755602808510,18.67,9.18,-7.1,784,851,772,334,818,34.48275862068966,-0.315,0.153,0.943
104153,1755602808539,18.71,9.18,-7.12,794,853,774,424,814,34.48275862068966,-0.316,0.151,0.944
104183,1755602808569,18.75,9.17,-7.14,790,841,777,408,806,33.333333333333336,-0.316,0.152,0.943
104213,1755602808599,18.74,9.19,-7.19,787,850,773,368,811,33.333333333333336,-0.315,0.157,0.941
104242,1755602808628,18.78,9.15,-7.26,786,853,775,342,807,34.48275862068966,-0.319,0.157,0.94
104272,1755602808658,18.78,9.14,-7.31,789,844,773,358,818,33.333333333333336,-0.321,0.151,0.941
104302,1755602808688,18.81,9.1,-7.33,789,857,776,419,810,33.333333333333336,-0.324,0.145,0.943
104332,1755602808717,18.81,9.12,-7.31,781,853,774,399,811,33.333333333333336,-0.325,0.145,0.945
104361,1755602808747,18.8,9.15,-7.28,785,851,776,305,818,34.48275862068966,-0.325,0.147,0.945
104390,1755602808776,18.82,9.16,-7.26,784,846,772,333,811,34.48275862068966,-0.323,0.148,0.942
104420,1755602808806,18.81,9.14,-7.26,788,855,772,413,816,33.333333333333336,-0.322,0.151,0.94
104479,1755602808865,18.81,9.09,-7.25,789,849,771,347,819,33.333333333333336,-0.321,0.151,0.942
104508,1755602808894,18.82,9.07,-7.25,788,854,769,336,820,34.48275862068966,-0.321,0.15,0.943
104537,1755602808923,18.81,9.05,-7.24,782,853,773,381,814,34.48275862068966,-0.321,0.148,0.943
104567,1755602808953,18.82,9.03,-7.23,785,851,775,423,810,33.333333333333336,-0.322,0.148,0.943
104596,1755602808982,18.83,9.03,-7.21,790,852,780,382,815,34.48275862068966,-0.324,0.148,0.944
104626,1755602809012,18.81,9.05,-7.19,788,846,776,323,807,33.333333333333336,-0.323,0.148,0.943
104655,1755602809041,18.82,9.05,-7.18,789,844,776,372,809,34.48275862068966,-0.322,0.149,0.943
104685,1755602809071,18.82,9.04,-7.18,786,850,781,438,810,33.333333333333336,-0.321,0.149,0.943
104714,1755602809100,18.82,9.04,-7.18,791,845,772,414,817,34.48275862068966,-0.321,0.15,0.943
104744,1755602809129,18.81,9.04,-7.18,788,845,772,311,814,33.333333333333336,-0.32,0.15,0.943
104773,1755602809159,18.79,9.04,-7.19,790,852,778,354,815,34.48275862068966,-0.32,0.15,0.944
104802,1755602809188,18.81,9.05,-7.19,788,850,774,413,818,34.48275862068966,-0.322,0.15,0.944
104832,1755602809218,18.8,9.06,-7.18,787,859,774,410,813,33.333333333333336,-0.321,0.149,0.943
104861,1755602809247,18.79,9.04,-7.17,786,853,775,330,812,34.48275862068966,-0.32,0.15,0.943
104891,1755602809276,18.79,9.03,-7.19,788,859,774,337,815,33.333333333333336,-0.319,0.151,0.943
104920,1755602809306,18.78,9.04,-7.2,785,854,776,419,816,34.48275862068966,-0.32,0.151,0.944
104949,1755602809335,18.79,9.04,-7.19,787,851,774,421,809,34.48275862068966,-0.321,0.15,0.944
104979,1755602809364,18.78,9.04,-7.18,785,856,778,346,815,33.333333333333336,-0.321,0.149,0.944
105008,1755602809394,18.8,9.02,-7.17,788,846,777,330,813,34.48275862068966,-0.32,0.149,0.944
105038,1755602809424,18.79,9.02,-7.16,787,852,779,374,815,33.333333333333336,-0.32,0.15,0.944
105067,1755602809453,18.78,9.03,-7.15,793,854,779,409,817,34.48275862068966,-0.321,0.149,0.945
105097,1755602809483,18.8,9.03,-7.14,790,856,778,354,809,33.333333333333336,-0.32,0.15,0.944
105126,1755602809512,18.79,9.03,-7.13,791,847,770,313,818,34.48275862068966,-0.319,0.151,0.943
105156,1755602809542,18.78,9.02,-7.14,788,851,774,349,816,33.333333333333336,-0.318,0.152,0.943
105185,1755602809571,18.78,9.02,-7.14,790,853,777,433,811,34.48275862068966,-0.318,0.151,0.944
105215,1755602809601,18.78,9.01,-7.15,790,851,771,410,816,33.333333333333336,-0.319,0.15,0.944
105244,1755602809630,18.77,9.01,-7.15,787,854,775,330,809,34.48275862068966,-0.319,0.151,0.944
105274,1755602809659,18.78,9.0,-7.15,786,854,775,341,812,33.333333333333336,-0.32,0.151,0.944
105332,1755602809718,18.76,8.99,-7.15,789,855,777,432,811,34.48275862068966,-0.319,0.151,0.944
105362,1755602809748,18.77,8.99,-7.16,789,845,782,365,810,33.333333333333336,-0.319,0.151,0.944
105391,1755602809778,18.78,8.98,-7.16,782,848,770,324,811,34.48275862068966,-0.319,0.15,0.944
105421,1755602809807,18.77,8.97,-7.16,782,847,770,376,815,33.333333333333336,-0.319,0.149,0.944
105451,1755602809837,18.77,8.97,-7.17,785,852,775,428,814,33.333333333333336,-0.319,0.151,0.944
105480,1755602809866,18.77,8.96,-7.17,785,860,773,389,818,34.48275862068966,-0.319,0.151,0.943
105510,1755602809896,18.76,8.94,-7.18,787,857,777,324,814,33.333333333333336,-0.319,0.149,0.943
105539,1755602809925,18.74,8.91,-7.19,786,851,777,332,814,34.48275862068966,-0.318,0.148,0.943
105569,1755602809955,18.75,8.87,-7.19,789,848,777,420,816,33.333333333333336,-0.318,0.149,0.945
105598,1755602809984,18.74,8.89,-7.19,788,849,778,369,814,34.48275862068966,-0.319,0.149,0.946
105628,1755602810014,18.75,8.9,-7.19,785,849,776,316,820,33.333333333333336,-0.318,0.148,0.945
105658,1755602810044,18.75,8.89,-7.18,788,857,772,329,811,33.333333333333336,-0.317,0.148,0.945
105687,1755602810073,18.77,8.89,-7.19,786,851,768,387,815,34.48275862068966,-0.318,0.149,0.946
105717,1755602810103,18.75,8.91,-7.19,787,858,768,400,806,33.333333333333336,-0.317,0.15,0.944
105746,1755602810132,18.77,8.9,-7.2,788,858,770,372,805,34.48275862068966,-0.318,0.149,0.944
105776,1755602810161,18.75,8.9,-7.21,783,854,776,284,815,33.333333333333336,-0.317,0.149,0.944
105805,1755602810191,18.76,8.88,-7.22,791,850,776,343,814,34.48275862068966,-0.318,0.148,0.944
