timestamp_ms,recv_timestamp_ms,pitch,roll,yaw,flex1,flex2,flex3,flex4,flex5,sampling_hz,accel_x,accel_y,accel_z
105834,1755602811186,18.76,8.89,-7.22,786,849,772,421,810,34.48275862068966,-0.319,0.147,0.945
105864,1755602811189,18.77,8.9,-7.21,791,856,769,378,816,33.333333333333336,-0.319,0.147,0.945
105893,1755602811190,18.78,8.9,-7.21,788,852,772,326,811,34.48275862068966,-0.319,0.147,0.944
105923,1755602811192,18.79,8.89,-7.21,785,850,778,325,811,33.333333333333336,-0.318,0.148,0.944
105952,1755602811194,18.8,8.9,-7.22,787,850,772,404,815,34.48275862068966,-0.317,0.151,0.944
105982,1755602811197,18.79,8.9,-7.24,785,847,773,414,816,33.333333333333336,-0.316,0.151,0.943
106012,1755602811199,18.78,8.88,-7.28,789,858,778,341,814,33.333333333333336,-0.317,0.15,0.943
106041,1755602811201,18.77,8.87,-7.29,789,853,779,291,810,34.48275862068966,-0.318,0.149,0.944
106071,1755602811204,18.78,8.87,-7.3,786,853,767,365,815,33.333333333333336,-0.319,0.148,0.944
106100,1755602811206,18.78,8.88,-7.31,789,845,775,411,819,34.48275862068966,-0.318,0.148,0.944
106159,1755602811210,18.78,8.86,-7.34,789,859,778,319,805,33.333333333333336,-0.318,0.148,0.944
106188,1755602811212,18.78,8.85,-7.35,789,852,769,354,811,34.48275862068966,-0.319,0.147,0.944
106218,1755602811214,18.78,8.84,-7.37,786,840,773,437,806,33.333333333333336,-0.319,0.147,0.944
106247,1755602811216,18.79,8.83,-7.37,781,852,777,414,813,34.48275862068966,-0.319,0.147,0.945
106277,1755602811217,18.77,8.83,-7.37,788,851,776,325,812,33.333333333333336,-0.319,0.148,0.944
106307,1755602811219,18.8,8.82,-7.39,790,850,772,344,812,33.333333333333336,-0.32,0.147,0.944
106336,1755602811221,18.81,8.8,-7.39,783,850,773,423,815,34.48275862068966,-0.32,0.145,0.944
106365,1755602811223,18.81,8.8,-7.39,788,854,775,420,817,34.48275862068966,-0.319,0.146,0.945
106395,1755602811226,18.82,8.81,-7.39,787,851,774,347,804,33.333333333333336,-0.318,0.147,0.945
106425,1755602811227,18.81,8.81,-7.41,787,844,778,320,816,33.333333333333336,-0.317,0.148,0.944
106454,1755602811229,18.84,8.78,-7.44,788,853,777,374,814,34.48275862068966,-0.318,0.147,0.944
106484,1755602811232,18.84,8.77,-7.45,787,848,773,414,815,33.333333333333336,-0.319,0.147,0.945
106514,1755602811234,18.83,8.78,-7.46,788,844,779,385,812,33.333333333333336,-0.319,0.147,0.945
106543,1755602811236,18.83,8.78,-7.48,787,840,779,323,808,34.48275862068966,-0.319,0.146,0.944
106573,1755602811238,18.82,8.76,-7.49,780,857,776,350,812,33.333333333333336,-0.32,0.145,0.944
106602,1755602811240,18.81,8.77,-7.49,789,854,776,423,809,34.48275862068966,-0.322,0.146,0.946
106632,1755602811242,18.8,8.8,-7.47,782,860,773,400,816,33.333333333333336,-0.321,0.146,0.945
106661,1755602811244,18.81,8.81,-7.47,785,852,775,342,811,34.48275862068966,-0.319,0.146,0.943
106691,1755602811246,18.8,8.79,-7.48,788,851,775,319,812,33.333333333333336,-0.318,0.147,0.943
106720,1755602811249,18.79,8.77,-7.51,785,850,779,398,821,34.48275862068966,-0.317,0.149,0.944
106750,1755602811251,18.8,8.77,-7.53,781,853,770,413,816,33.333333333333336,-0.319,0.147,0.945
106779,1755602811253,18.79,8.77,-7.54,791,854,776,379,814,34.48275862068966,-0.32,0.144,0.945
106808,1755602811255,18.79,8.74,-7.53,787,850,780,325,813,34.48275862068966,-0.321,0.143,0.946
106838,1755602811257,18.82,8.73,-7.53,786,853,777,327,813,33.333333333333336,-0.322,0.146,0.947
106867,1755602811259,18.83,8.74,-7.52,790,853,771,397,821,34.48275862068966,-0.323,0.147,0.946
106926,1755602811313,18.86,8.73,-7.54,789,858,776,334,810,34.48275862068966,-0.321,0.147,0.945
106946,1755602811332,18.86,8.72,-7.54,787,841,769,419,817,50.0,-0.32,0.148,0.945
106976,1755602811362,18.87,8.72,-7.55,788,854,773,331,816,33.333333333333336,-0.32,0.147,0.945
107035,1755602811421,18.85,8.71,-7.54,788,847,771,384,814,33.333333333333336,-0.321,0.145,0.945
107123,1755602811509,18.84,8.7,-7.55,787,842,772,338,811,34.48275862068966,-0.319,0.146,0.945
107152,1755602811539,18.83,8.71,-7.55,789,863,780,415,811,34.48275862068966,-0.319,0.145,0.946
107182,1755602811568,18.84,8.7,-7.56,785,849,774,420,812,33.333333333333336,-0.319,0.144,0.945
107211,1755602811597,18.84,8.7,-7.55,789,847,780,355,814,34.48275862068966,-0.32,0.144,0.945
107241,1755602811626,18.83,8.71,-7.54,783,844,770,336,809,33.333333333333336,-0.319,0.145,0.945
107270,1755602811656,18.83,8.71,-7.54,795,849,773,387,812,34.48275862068966,-0.318,0.147,0.945
107299,1755602811685,18.84,8.71,-7.54,789,854,772,412,806,34.48275862068966,-0.318,0.148,0.945
107329,1755602811714,18.83,8.71,-7.55,792,847,771,366,819,33.333333333333336,-0.318,0.147,0.944
107358,1755602811744,18.82,8.69,-7.56,786,850,773,333,810,34.48275862068966,-0.318,0.145,0.944
107388,1755602811773,18.82,8.69,-7.56,782,848,776,370,818,33.333333333333336,-0.319,0.145,0.945
107417,1755602811803,18.82,8.71,-7.55,779,855,775,432,813,34.48275862068966,-0.32,0.144,0.947
107446,1755602811832,18.81,8.74,-7.53,788,855,768,400,814,34.48275862068966,-0.319,0.145,0.945
107476,1755602811862,18.79,8.73,-7.53,785,856,775,337,814,33.333333333333336,-0.317,0.146,0.944
107505,1755602811891,18.76,8.73,-7.54,791,865,774,349,807,34.48275862068966,-0.317,0.146,0.945
107535,1755602811921,18.76,8.75,-7.54,788,853,777,386,817,33.333333333333336,-0.318,0.146,0.946
107564,1755602811950,18.76,8.77,-7.54,783,855,776,396,817,34.48275862068966,-0.318,0.146,0.946
107594,1755602811979,18.76,8.76,-7.55,788,852,775,327,809,33.333333333333336,-0.317,0.146,0.944
107623,1755602812009,18.74,8.75,-7.55,787,853,769,334,813,34.48275862068966,-0.316,0.148,0.943
107653,1755602812039,18.76,8.73,-7.57,791,857,775,407,809,33.333333333333336,-0.317,0.148,0.945
107682,1755602812068,18.74,8.74,-7.58,791,848,776,426,809,34.48275862068966,-0.317,0.147,0.945
107711,1755602812098,18.73,8.74,-7.58,785,854,776,354,811,34.48275862068966,-0.317,0.146,0.944
107741,1755602812127,18.76,8.72,-7.58,782,849,772,339,811,33.333333333333336,-0.317,0.146,0.944
107771,1755602812157,18.74,8.71,-7.58,787,850,774,378,812,33.333333333333336,-0.317,0.146,0.945
107800,1755602812186,18.74,8.72,-7.58,788,850,772,419,815,34.48275862068966,-0.316,0.147,0.945
107830,1755602812215,18.74,8.74,-7.59,788,853,778,392,808,33.333333333333336,-0.316,0.147,0.945
107859,1755602812245,18.74,8.74,-7.6,783,850,776,329,812,34.48275862068966,-0.316,0.145,0.944
107918,1755602812304,18.75,8.73,-7.62,790,850,771,415,810,33.333333333333336,-0.316,0.146,0.945
107976,1755602812362,18.75,8.74,-7.63,784,861,778,331,811,34.48275862068966,-0.316,0.146,0.944
108006,1755602812393,18.74,8.73,-7.63,784,849,776,333,804,33.333333333333336,-0.316,0.146,0.944
108026,1755602812412,18.73,8.72,-7.63,787,848,774,377,816,50.0,-0.316,0.146,0.945
108056,1755602812441,18.73,8.73,-7.63,789,856,775,369,810,33.333333333333336,-0.316,0.146,0.945
108085,1755602812471,18.73,8.73,-7.63,788,845,774,414,818,34.48275862068966,-0.317,0.145,0.946
108114,1755602812500,18.72,8.75,-7.63,788,865,774,425,815,34.48275862068966,-0.316,0.146,0.946
108144,1755602812530,18.72,8.75,-7.63,779,852,773,340,812,33.333333333333336,-0.314,0.148,0.945
108173,1755602812559,18.72,8.74,-7.65,786,856,766,344,818,34.48275862068966,-0.316,0.147,0.945
108203,1755602812588,18.71,8.74,-7.66,786,840,772,368,816,33.333333333333336,-0.317,0.145,0.945
108232,1755602812618,18.73,8.74,-7.65,790,850,773,411,811,34.48275862068966,-0.319,0.144,0.946
108261,1755602812647,18.72,8.75,-7.63,786,858,775,348,809,34.48275862068966,-0.318,0.145,0.946
108291,1755602812676,18.73,8.74,-7.62,785,853,774,320,813,33.333333333333336,-0.317,0.146,0.945
108320,1755602812706,18.73,8.74,-7.63,782,858,775,385,816,34.48275862068966,-0.315,0.147,0.946
108349,1755602812735,18.72,8.75,-7.64,788,850,777,418,817,34.48275862068966,-0.315,0.147,0.946
108379,1755602812765,18.71,8.76,-7.65,791,855,772,375,808,33.333333333333336,-0.316,0.146,0.946
108408,1755602812795,18.71,8.75,-7.65,787,849,773,332,814,34.48275862068966,-0.316,0.146,0.945
108438,1755602812824,18.72,8.75,-7.66,784,850,775,314,815,33.333333333333336,-0.317,0.147,0.945
108468,1755602812854,18.72,8.75,-7.66,789,855,774,404,815,33.333333333333336,-0.316,0.147,0.946
108497,1755602812883,18.71,8.76,-7.67,781,848,778,390,816,34.48275862068966,-0.315,0.147,0.946
108527,1755602812913,18.71,8.76,-7.69,784,852,775,336,815,33.333333333333336,-0.315,0.146,0.946
108556,1755602812942,18.71,8.75,-7.7,786,842,774,343,814,34.48275862068966,-0.316,0.147,0.945
108586,1755602812972,18.71,8.75,-7.71,791,855,773,399,814,33.333333333333336,-0.316,0.147,0.945
108616,1755602813001,18.71,8.74,-7.71,787,847,776,411,811,33.333333333333336,-0.317,0.146,0.945
108674,1755602813060,18.72,8.74,-7.71,784,857,775,312,811,34.48275862068966,-0.315,0.146,0.946
108704,1755602813090,18.72,8.73,-7.72,787,858,774,365,812,33.333333333333336,-0.315,0.146,0.946
108733,1755602813120,18.71,8.73,-7.72,788,852,775,426,812,34.48275862068966,-0.316,0.146,0.946
108763,1755602813149,18.7,8.73,-7.73,788,852,781,415,805,33.333333333333336,-0.316,0.146,0.946
108793,1755602813179,18.7,8.75,-7.72,789,847,775,326,811,33.333333333333336,-0.317,0.146,0.947
108822,1755602813208,18.71,8.74,-7.72,787,849,773,340,820,34.48275862068966,-0.317,0.145,0.946
108852,1755602813237,18.7,8.74,-7.72,786,855,773,420,814,33.333333333333336,-0.316,0.146,0.945
108881,1755602813267,18.71,8.73,-7.74,783,858,768,406,812,34.48275862068966,-0.315,0.148,0.946
108940,1755602813326,18.72,8.76,-7.77,788,845,774,329,820,33.333333333333336,-0.316,0.146,0.946
108969,1755602813355,18.74,8.76,-7.79,790,850,778,413,808,34.48275862068966,-0.316,0.147,0.946
108999,1755602813385,18.73,8.77,-7.8,787,851,782,436,814,33.333333333333336,-0.316,0.148,0.946
109029,1755602813414,18.72,8.76,-7.81,783,845,769,393,811,33.333333333333336,-0.317,0.147,0.945
109058,1755602813444,18.7,8.74,-7.82,786,851,773,321,809,34.48275862068966,-0.316,0.146,0.945
109087,1755602813473,18.7,8.74,-7.83,785,858,777,357,812,34.48275862068966,-0.317,0.146,0.947
109117,1755602813503,18.7,8.75,-7.83,788,853,776,427,811,33.333333333333336,-0.317,0.146,0.947
109146,1755602813532,18.69,8.74,-7.84,789,853,774,392,816,34.48275862068966,-0.317,0.146,0.945
109175,1755602813561,18.68,8.73,-7.85,790,850,766,325,812,34.48275862068966,-0.317,0.147,0.946
109205,1755602813591,18.67,8.73,-7.86,782,854,773,353,811,33.333333333333336,-0.317,0.146,0.947
109235,1755602813621,18.69,8.72,-7.87,787,853,773,422,818,33.333333333333336,-0.317,0.145,0.947
109264,1755602813650,18.7,8.74,-7.88,782,854,776,428,813,34.48275862068966,-0.317,0.146,0.947
109294,1755602813680,18.71,8.73,-7.89,784,852,775,334,810,33.333333333333336,-0.317,0.146,0.946
109323,1755602813709,18.7,8.72,-7.9,790,850,778,336,812,34.48275862068966,-0.317,0.145,0.945
109353,1755602813739,18.69,8.73,-7.89,782,856,771,393,812,33.333333333333336,-0.317,0.146,0.946
109441,1755602813827,18.7,8.73,-7.9,785,850,774,323,811,34.48275862068966,-0.316,0.145,0.946
109471,1755602813857,18.72,8.72,-7.9,786,866,778,367,806,33.333333333333336,-0.317,0.145,0.947
109500,1755602813886,18.74,8.72,-7.89,786,849,777,435,810,34.48275862068966,-0.317,0.146,0.946
109530,1755602813916,18.74,8.73,-7.9,789,849,777,427,815,33.333333333333336,-0.315,0.147,0.946
109559,1755602813945,18.76,8.7,-7.91,788,852,769,336,808,34.48275862068966,-0.314,0.147,0.945
109618,1755602814004,18.76,8.67,-7.99,785,857,774,431,817,34.48275862068966,-0.314,0.147,0.947
109647,1755602814033,18.76,8.68,-8.02,792,856,779,429,812,34.48275862068966,-0.317,0.146,0.947
109677,1755602814063,18.76,8.7,-8.02,792,844,777,346,811,33.333333333333336,-0.319,0.144,0.946
109707,1755602814093,18.79,8.68,-8.01,785,856,780,338,816,33.333333333333336,-0.32,0.144,0.946
109736,1755602814122,18.76,8.7,-8.01,788,855,773,404,807,34.48275862068966,-0.318,0.146,0.946
109766,1755602814152,18.79,8.68,-8.03,788,849,774,427,815,33.333333333333336,-0.318,0.146,0.946
109854,1755602814240,18.79,8.68,-8.05,788,857,774,335,808,34.48275862068966,-0.318,0.145,0.945
109884,1755602814270,18.78,8.66,-8.06,785,849,776,414,818,33.333333333333336,-0.319,0.144,0.945
109913,1755602814299,18.79,8.65,-8.06,782,858,775,415,818,34.48275862068966,-0.32,0.143,0.946
109943,1755602814329,18.8,8.66,-8.05,788,859,779,331,815,33.333333333333336,-0.32,0.144,0.946
109972,1755602814359,18.8,8.66,-8.04,788,840,775,333,812,34.48275862068966,-0.32,0.145,0.945
110002,1755602814388,18.79,8.66,-8.04,785,849,775,391,820,33.333333333333336,-0.318,0.145,0.945
110032,1755602814418,18.8,8.64,-8.05,783,849,776,421,818,33.333333333333336,-0.318,0.144,0.945
110062,1755602814447,18.79,8.63,-8.06,786,851,778,395,819,33.333333333333336,-0.318,0.144,0.946
110120,1755602814506,18.8,8.67,-8.09,784,860,771,359,809,34.48275862068966,-0.317,0.145,0.945
110150,1755602814535,18.8,8.65,-8.1,784,851,775,421,816,33.333333333333336,-0.318,0.144,0.944
110179,1755602814565,18.8,8.64,-8.11,787,849,769,408,814,34.48275862068966,-0.319,0.143,0.946
110208,1755602814594,18.81,8.66,-8.11,789,848,772,338,815,34.48275862068966,-0.32,0.142,0.946
110238,1755602814624,18.83,8.67,-8.11,792,842,772,345,816,33.333333333333336,-0.319,0.143,0.945
110267,1755602814653,18.84,8.67,-8.11,788,844,770,439,809,34.48275862068966,-0.319,0.144,0.944
110297,1755602814683,18.86,8.66,-8.12,786,850,777,409,818,33.333333333333336,-0.319,0.146,0.944
110326,1755602814713,18.87,8.67,-8.14,787,855,770,335,808,34.48275862068966,-0.317,0.146,0.945
110356,1755602814742,18.91,8.65,-8.17,788,845,776,337,813,33.333333333333336,-0.317,0.145,0.945
110385,1755602814772,18.89,8.65,-8.18,787,851,772,398,816,34.48275862068966,-0.318,0.143,0.945
110415,1755602814801,18.88,8.65,-8.19,784,852,773,411,815,33.333333333333336,-0.32,0.142,0.946
110444,1755602814830,18.88,8.68,-8.17,787,853,775,355,808,34.48275862068966,-0.32,0.143,0.946
110503,1755602814889,18.87,8.66,-8.17,788,850,773,364,821,34.48275862068966,-0.319,0.145,0.941
110533,1755602814919,18.85,8.63,-8.17,788,849,776,431,813,33.333333333333336,-0.319,0.145,0.943
110563,1755602814948,18.85,8.62,-8.17,790,847,769,402,813,33.333333333333336,-0.318,0.146,0.946
110592,1755602814978,18.87,8.63,-8.2,784,854,777,307,815,34.48275862068966,-0.318,0.146,0.945
110651,1755602815036,18.87,8.63,-8.21,789,842,770,422,815,33.333333333333336,-0.321,0.143,0.945
110680,1755602815066,18.88,8.65,-8.2,782,848,775,417,816,34.48275862068966,-0.321,0.145,0.944
110709,1755602815095,18.9,8.64,-8.21,784,853,770,339,821,34.48275862068966,-0.32,0.144,0.944
110739,1755602815125,18.92,8.64,-8.24,789,852,775,329,812,33.333333333333336,-0.32,0.143,0.945
110798,1755602815184,18.95,8.67,-8.2,787,845,775,411,811,34.48275862068966,-0.322,0.145,0.945
110828,1755602815214,18.97,8.66,-8.2,790,849,773,365,817,33.333333333333336,-0.317,0.147,0.943
110857,1755602815243,18.95,8.63,-8.23,788,851,774,330,812,34.48275862068966,-0.317,0.146,0.942
110887,1755602815273,18.93,8.6,-8.24,786,857,775,349,812,33.333333333333336,-0.32,0.144,0.944
110916,1755602815302,18.95,8.61,-8.23,788,856,768,424,811,34.48275862068966,-0.324,0.141,0.946
110946,1755602815331,18.94,8.64,-8.21,790,853,776,400,812,33.333333333333336,-0.322,0.143,0.945
110975,1755602815361,18.97,8.64,-8.21,788,847,774,327,813,34.48275862068966,-0.32,0.146,0.943
111005,1755602815391,18.96,8.63,-8.23,788,849,775,335,809,33.333333333333336,-0.317,0.147,0.942
111034,1755602815420,18.94,8.61,-8.26,791,850,773,412,806,34.48275862068966,-0.318,0.146,0.944
111064,1755602815451,18.94,8.6,-8.28,781,853,776,419,818,33.333333333333336,-0.32,0.144,0.945
111084,1755602815470,18.93,8.62,-8.29,786,844,778,379,818,50.0,-0.321,0.144,0.945
111114,1755602815500,18.94,8.62,-8.3,788,847,772,413,811,33.333333333333336,-0.321,0.144,0.944
111143,1755602815529,18.94,8.6,-8.31,784,859,768,347,820,34.48275862068966,-0.322,0.142,0.944
111173,1755602815559,18.92,8.61,-8.3,787,854,779,317,814,33.333333333333336,-0.323,0.143,0.945
111202,1755602815588,18.94,8.62,-8.3,791,855,769,373,805,34.48275862068966,-0.322,0.144,0.945
111261,1755602815648,18.93,8.64,-8.3,785,853,775,377,818,34.48275862068966,-0.32,0.143,0.944
111291,1755602815677,18.93,8.62,-8.29,783,852,778,327,816,33.333333333333336,-0.319,0.144,0.944
111321,1755602815706,18.93,8.58,-8.31,781,852,780,340,815,33.333333333333336,-0.316,0.147,0.944
111350,1755602815736,18.92,8.54,-8.35,784,850,779,421,817,34.48275862068966,-0.315,0.148,0.944
111380,1755602815766,18.97,8.45,-8.42,786,849,775,396,816,33.333333333333336,-0.316,0.144,0.944
111409,1755602815795,19.03,8.39,-8.46,787,845,775,326,816,34.48275862068966,-0.321,0.14,0.946
111468,1755602815855,19.11,8.31,-8.46,788,848,776,391,808,34.48275862068966,-0.329,0.137,0.947
111498,1755602815884,19.15,8.28,-8.43,785,855,780,411,820,33.333333333333336,-0.327,0.138,0.944
111528,1755602815914,19.15,8.28,-8.4,788,848,776,369,814,33.333333333333336,-0.325,0.138,0.946
111557,1755602815943,19.14,8.26,-8.39,791,856,771,280,809,34.48275862068966,-0.325,0.138,0.947
111616,1755602816002,19.13,8.29,-8.34,787,852,776,413,812,34.48275862068966,-0.326,0.139,0.946
111645,1755602816031,19.11,8.29,-8.33,781,850,778,409,813,34.48275862068966,-0.324,0.14,0.944
111675,1755602816061,19.11,8.27,-8.35,786,854,772,319,810,33.333333333333336,-0.324,0.14,0.944
111704,1755602816090,19.11,8.27,-8.37,786,852,781,334,818,34.48275862068966,-0.323,0.139,0.945
111734,1755602816120,19.11,8.27,-8.39,786,847,777,424,816,33.333333333333336,-0.324,0.137,0.946
111763,1755602816149,19.1,8.28,-8.4,790,849,777,413,815,34.48275862068966,-0.324,0.139,0.946
111793,1755602816178,19.11,8.29,-8.42,787,850,771,343,809,33.333333333333336,-0.323,0.14,0.944
111822,1755602816208,19.1,8.28,-8.45,786,852,774,345,823,34.48275862068966,-0.324,0.139,0.944
111881,1755602816267,19.08,8.3,-8.47,781,854,772,426,816,33.333333333333336,-0.326,0.136,0.945
111911,1755602816297,19.08,8.32,-8.44,790,850,778,348,817,33.333333333333336,-0.326,0.136,0.945
111940,1755602816326,19.05,8.36,-8.44,785,851,777,303,813,34.48275862068966,-0.323,0.139,0.945
111970,1755602816355,19.04,8.36,-8.45,786,848,777,353,816,33.333333333333336,-0.322,0.141,0.944
111999,1755602816385,19.04,8.35,-8.46,789,845,779,421,811,34.48275862068966,-0.323,0.139,0.945
112058,1755602816444,19.02,8.34,-8.46,785,848,779,314,814,33.333333333333336,-0.324,0.139,0.945
112087,1755602816473,19.0,8.35,-8.45,786,853,774,336,812,34.48275862068966,-0.323,0.139,0.945
112116,1755602816502,19.0,8.36,-8.45,783,855,773,431,810,34.48275862068966,-0.323,0.138,0.945
112175,1755602816561,18.98,8.38,-8.43,791,843,775,317,818,34.48275862068966,-0.321,0.139,0.945
112204,1755602816590,18.97,8.39,-8.45,790,852,771,329,813,34.48275862068966,-0.321,0.14,0.945
112263,1755602816649,18.99,8.39,-8.46,783,852,775,420,816,34.48275862068966,-0.32,0.142,0.946
112292,1755602816679,18.98,8.38,-8.47,788,865,772,331,818,34.48275862068966,-0.32,0.142,0.944
112322,1755602816708,18.97,8.36,-8.47,783,847,781,322,809,33.333333333333336,-0.322,0.14,0.944
112352,1755602816738,18.98,8.36,-8.46,789,860,777,387,817,33.333333333333336,-0.322,0.139,0.946
112381,1755602816767,18.98,8.37,-8.44,787,850,767,422,819,34.48275862068966,-0.322,0.14,0.946
112411,1755602816797,18.97,8.39,-8.42,782,857,776,368,811,33.333333333333336,-0.321,0.141,0.945
112440,1755602816826,18.97,8.37,-8.42,787,841,776,328,813,34.48275862068966,-0.32,0.14,0.945
112470,1755602816856,18.97,8.36,-8.41,784,850,770,368,809,33.333333333333336,-0.32,0.139,0.945
112499,1755602816885,18.96,8.36,-8.41,787,853,777,414,818,34.48275862068966,-0.321,0.139,0.946
112558,1755602816944,18.93,8.39,-8.38,787,845,766,315,812,33.333333333333336,-0.32,0.14,0.946
112587,1755602816973,18.94,8.38,-8.38,795,857,775,338,818,34.48275862068966,-0.32,0.14,0.945
112617,1755602817003,18.92,8.37,-8.37,786,856,772,420,821,33.333333333333336,-0.32,0.14,0.946
112675,1755602817061,18.91,8.39,-8.35,791,850,773,331,810,34.48275862068966,-0.32,0.141,0.946
112705,1755602817091,18.9,8.39,-8.35,792,851,771,323,810,33.333333333333336,-0.318,0.142,0.945
112734,1755602817121,18.87,8.37,-8.35,780,850,774,394,820,34.48275862068966,-0.319,0.141,0.946
112764,1755602817150,18.87,8.37,-8.35,787,855,775,416,810,33.333333333333336,-0.32,0.141,0.947
112794,1755602817180,18.87,8.38,-8.33,785,854,781,371,815,33.333333333333336,-0.32,0.141,0.947
112823,1755602817209,18.86,8.38,-8.32,786,854,772,320,817,34.48275862068966,-0.319,0.141,0.946
112853,1755602817239,18.85,8.37,-8.32,792,857,777,359,808,33.333333333333336,-0.319,0.141,0.946
112882,1755602817268,18.85,8.36,-8.33,786,854,773,415,812,34.48275862068966,-0.319,0.141,0.946
112912,1755602817298,18.86,8.36,-8.33,789,841,779,392,809,33.333333333333336,-0.32,0.141,0.948
112971,1755602817356,18.85,8.35,-8.31,788,852,774,336,814,33.333333333333336,-0.319,0.142,0.946
113000,1755602817386,18.84,8.35,-8.3,786,851,776,409,814,34.48275862068966,-0.32,0.141,0.947
113029,1755602817415,18.85,8.37,-8.3,789,850,768,417,821,34.48275862068966,-0.32,0.141,0.948
113059,1755602817445,18.86,8.4,-8.29,784,852,774,338,809,33.333333333333336,-0.319,0.142,0.948
113088,1755602817474,18.86,8.41,-8.29,788,858,773,322,811,34.48275862068966,-0.318,0.142,0.946
113118,1755602817503,18.86,8.39,-8.29,785,852,766,403,813,33.333333333333336,-0.318,0.141,0.946
113147,1755602817533,18.85,8.39,-8.29,789,854,781,418,816,34.48275862068966,-0.318,0.141,0.947
113177,1755602817563,18.86,8.41,-8.29,784,857,775,378,807,33.333333333333336,-0.319,0.142,0.948
113206,1755602817592,18.86,8.43,-8.28,781,853,775,316,819,34.48275862068966,-0.319,0.142,0.947
113236,1755602817622,18.86,8.44,-8.27,790,850,778,376,811,33.333333333333336,-0.318,0.143,0.945
113265,1755602817651,18.84,8.43,-8.29,782,857,772,423,819,34.48275862068966,-0.316,0.144,0.945
113294,1755602817681,18.81,8.44,-8.3,791,863,769,397,817,34.48275862068966,-0.317,0.144,0.947
113324,1755602817710,18.81,8.46,-8.31,784,849,773,283,816,33.333333333333336,-0.317,0.143,0.947
113354,1755602817740,18.81,8.49,-8.32,784,843,769,326,814,33.333333333333336,-0.317,0.143,0.946
113383,1755602817769,18.79,8.49,-8.34,785,842,781,423,814,34.48275862068966,-0.317,0.144,0.945
113413,1755602817799,18.79,8.48,-8.35,789,848,768,415,812,33.333333333333336,-0.318,0.143,0.944
113442,1755602817828,18.79,8.47,-8.35,785,854,778,339,820,34.48275862068966,-0.318,0.142,0.945
113472,1755602817857,18.78,8.47,-8.35,783,852,776,315,816,33.333333333333336,-0.318,0.142,0.945
113501,1755602817887,18.77,8.46,-8.35,793,850,771,385,815,34.48275862068966,-0.317,0.143,0.945
113530,1755602817916,18.77,8.46,-8.36,783,853,777,413,815,34.48275862068966,-0.316,0.144,0.945
113560,1755602817946,18.75,8.48,-8.37,790,853,774,355,811,33.333333333333336,-0.316,0.144,0.945
113589,1755602817975,18.75,8.48,-8.38,785,845,775,331,809,34.48275862068966,-0.317,0.143,0.944
113619,1755602818005,18.76,8.45,-8.39,788,859,772,373,815,33.333333333333336,-0.318,0.142,0.944
113648,1755602818034,18.76,8.45,-8.39,789,849,774,434,813,34.48275862068966,-0.318,0.142,0.945
113678,1755602818064,18.77,8.46,-8.39,784,852,776,406,817,33.333333333333336,-0.318,0.143,0.945
113737,1755602818123,18.76,8.46,-8.39,779,852,770,307,816,33.333333333333336,-0.317,0.143,0.945
113766,1755602818152,18.76,8.44,-8.41,786,855,773,402,819,34.48275862068966,-0.317,0.144,0.945
113796,1755602818182,18.75,8.43,-8.42,782,854,779,392,809,33.333333333333336,-0.318,0.144,0.945
113825,1755602818211,18.75,8.44,-8.43,789,849,769,340,815,34.48275862068966,-0.318,0.142,0.945
113855,1755602818241,18.77,8.41,-8.43,784,852,776,334,815,33.333333333333336,-0.319,0.141,0.946
113884,1755602818270,18.78,8.43,-8.42,786,849,773,395,813,34.48275862068966,-0.318,0.142,0.947
113914,1755602818300,18.78,8.45,-8.43,787,849,770,425,810,33.333333333333336,-0.317,0.143,0.945
113943,1755602818329,18.77,8.46,-8.44,785,849,778,401,817,34.48275862068966,-0.316,0.144,0.944
113973,1755602818359,18.77,8.42,-8.47,786,859,775,348,814,33.333333333333336,-0.317,0.142,0.944
114002,1755602818388,18.76,8.42,-8.49,788,846,775,363,812,34.48275862068966,-0.319,0.141,0.945
114031,1755602818417,18.79,8.44,-8.49,785,855,775,436,820,34.48275862068966,-0.319,0.142,0.945
114061,1755602818447,18.78,8.41,-8.5,786,849,771,395,816,33.333333333333336,-0.317,0.142,0.945
114090,1755602818477,18.76,8.41,-8.51,784,849,779,317,823,34.48275862068966,-0.317,0.142,0.944
114120,1755602818506,18.75,8.4,-8.52,782,853,776,342,810,33.333333333333336,-0.318,0.141,0.945
114179,1755602818565,18.75,8.42,-8.51,786,846,775,416,818,33.333333333333336,-0.318,0.14,0.945
114208,1755602818594,18.77,8.43,-8.51,788,850,773,340,820,34.48275862068966,-0.317,0.141,0.944
114238,1755602818623,18.78,8.45,-8.5,789,852,777,330,820,33.333333333333336,-0.316,0.143,0.945
114267,1755602818653,18.78,8.44,-8.51,788,854,774,408,806,34.48275862068966,-0.311,0.145,0.943
114297,1755602818682,18.75,8.41,-8.56,791,855,768,407,815,33.333333333333336,-0.312,0.146,0.942
114326,1755602818712,18.72,8.37,-8.63,784,840,775,361,810,34.48275862068966,-0.314,0.144,0.943
114356,1755602818741,18.73,8.37,-8.66,783,850,777,321,814,33.333333333333336,-0.32,0.139,0.947
114385,1755602818771,18.76,8.39,-8.66,788,845,776,367,812,34.48275862068966,-0.324,0.136,0.947
114414,1755602818801,18.78,8.4,-8.64,785,851,771,427,805,34.48275862068966,-0.323,0.137,0.944
114444,1755602818830,18.77,8.38,-8.64,788,861,774,388,813,33.333333333333336,-0.322,0.14,0.943
114474,1755602818860,18.75,8.36,-8.65,790,851,776,330,806,33.333333333333336,-0.319,0.142,0.944
114503,1755602818890,18.74,8.36,-8.68,787,853,770,341,813,34.48275862068966,-0.318,0.141,0.946
114533,1755602818919,18.75,8.37,-8.7,787,847,778,405,808,33.333333333333336,-0.317,0.141,0.946
114563,1755602818949,18.77,8.36,-8.73,789,852,777,398,818,33.333333333333336,-0.318,0.141,0.945
114592,1755602818978,18.77,8.32,-8.75,787,850,769,349,819,34.48275862068966,-0.319,0.139,0.945
114622,1755602819008,18.77,8.31,-8.74,789,851,775,327,822,33.333333333333336,-0.32,0.138,0.946
