timestamp_ms,recv_timestamp_ms,pitch,roll,yaw,flex1,flex2,flex3,flex4,flex5,sampling_hz,accel_x,accel_y,accel_z
25155,1755597819477,23.16,-44.08,-9.27,772,774,857,917,870,34.48275862068966,-0.391,-0.644,0.655
25185,1755597819479,23.17,-44.09,-9.26,774,771,854,918,877,33.333333333333336,-0.389,-0.645,0.655
25214,1755597819481,23.19,-44.11,-9.26,766,772,851,914,867,34.48275862068966,-0.391,-0.646,0.656
25244,1755597819483,23.18,-44.11,-9.25,776,769,845,902,875,33.333333333333336,-0.391,-0.646,0.656
25274,1755597819485,23.21,-44.08,-9.23,770,766,853,916,870,33.333333333333336,-0.39,-0.646,0.657
25303,1755597819487,23.21,-44.06,-9.24,772,774,852,927,868,34.48275862068966,-0.391,-0.644,0.656
25333,1755597819489,23.2,-44.08,-9.26,767,772,856,923,875,33.333333333333336,-0.393,-0.644,0.655
25362,1755597819491,23.2,-44.1,-9.25,776,770,851,922,876,34.48275862068966,-0.394,-0.645,0.655
25392,1755597819493,23.22,-44.08,-9.22,765,762,860,916,876,33.333333333333336,-0.394,-0.645,0.655
25421,1755597819495,23.19,-44.1,-9.23,776,778,863,924,862,34.48275862068966,-0.392,-0.645,0.655
25451,1755597819497,23.19,-44.09,-9.21,765,765,859,918,878,33.333333333333336,-0.39,-0.645,0.655
25480,1755597819499,23.2,-44.1,-9.21,772,763,854,916,875,34.48275862068966,-0.392,-0.643,0.656
25510,1755597819501,23.19,-44.08,-9.22,774,768,860,918,873,33.333333333333336,-0.393,-0.644,0.655
25539,1755597819504,23.16,-44.06,-9.21,771,773,862,919,874,34.48275862068966,-0.393,-0.644,0.653
25569,1755597819505,23.13,-44.1,-9.21,776,767,856,921,869,33.333333333333336,-0.393,-0.645,0.654
25598,1755597819507,23.15,-44.09,-9.18,778,771,849,918,872,34.48275862068966,-0.393,-0.646,0.657
25628,1755597819509,23.12,-44.03,-9.16,771,765,854,922,870,33.333333333333336,-0.392,-0.646,0.658
25658,1755597819511,23.11,-44.02,-9.14,772,769,854,927,878,33.333333333333336,-0.391,-0.644,0.656
25687,1755597819513,23.11,-44.03,-9.14,777,774,858,926,871,34.48275862068966,-0.39,-0.642,0.656
25717,1755597819515,23.09,-44.03,-9.15,764,767,853,917,875,33.333333333333336,-0.392,-0.641,0.655
25746,1755597819518,23.09,-44.07,-9.15,768,771,854,919,867,34.48275862068966,-0.392,-0.641,0.655
25776,1755597819520,23.1,-44.1,-9.16,772,767,851,921,873,33.333333333333336,-0.39,-0.642,0.656
25805,1755597819521,23.1,-44.09,-9.17,773,772,854,914,874,34.48275862068966,-0.39,-0.644,0.658
25864,1755597819526,23.12,-44.09,-9.18,774,760,851,923,876,34.48275862068966,-0.389,-0.643,0.654
25894,1755597819528,23.13,-44.12,-9.2,770,774,857,913,873,33.333333333333336,-0.391,-0.643,0.654
25923,1755597819530,23.11,-44.12,-9.23,775,767,868,920,866,34.48275862068966,-0.391,-0.644,0.655
25953,1755597819533,23.12,-44.11,-9.23,771,770,864,919,874,33.333333333333336,-0.392,-0.645,0.657
25982,1755597819535,23.13,-44.09,-9.22,772,767,862,921,869,34.48275862068966,-0.391,-0.645,0.657
26012,1755597819536,23.13,-44.08,-9.21,767,777,860,919,863,33.333333333333336,-0.391,-0.645,0.656
26041,1755597819539,23.13,-44.06,-9.22,772,771,855,919,870,34.48275862068966,-0.39,-0.644,0.655
26071,1755597819541,23.12,-44.09,-9.23,774,767,855,919,866,33.333333333333336,-0.391,-0.645,0.656
26101,1755597819543,23.1,-44.1,-9.23,775,766,852,917,877,33.333333333333336,-0.393,-0.646,0.656
26130,1755597819545,23.12,-44.09,-9.19,774,762,860,923,866,34.48275862068966,-0.392,-0.646,0.656
26160,1755597819547,23.12,-44.08,-9.17,775,765,850,917,874,33.333333333333336,-0.391,-0.646,0.657
26189,1755597819549,23.08,-44.08,-9.19,766,775,852,913,878,34.48275862068966,-0.391,-0.645,0.656
26219,1755597819551,23.04,-44.08,-9.19,771,771,857,916,874,33.333333333333336,-0.391,-0.646,0.657
26248,1755597819553,23.08,-44.08,-9.15,773,771,857,922,870,34.48275862068966,-0.392,-0.646,0.657
26277,1755597819555,23.07,-44.08,-9.12,769,770,851,910,871,34.48275862068966,-0.391,-0.645,0.656
26307,1755597819557,23.04,-44.08,-9.12,771,771,854,916,878,33.333333333333336,-0.389,-0.643,0.656
26336,1755597819559,23.04,-44.09,-9.13,772,765,856,915,867,34.48275862068966,-0.39,-0.642,0.656
26366,1755597819560,23.04,-44.1,-9.14,769,764,856,919,881,33.333333333333336,-0.39,-0.642,0.657
26395,1755597819563,22.99,-44.08,-9.19,770,770,860,919,872,34.48275862068966,-0.391,-0.644,0.658
26425,1755597819565,22.94,-44.08,-9.21,776,773,850,923,878,33.333333333333336,-0.391,-0.644,0.655
26454,1755597819567,22.92,-44.09,-9.21,775,772,852,919,873,34.48275862068966,-0.391,-0.646,0.655
26484,1755597819569,22.9,-44.08,-9.19,771,768,852,921,874,33.333333333333336,-0.39,-0.647,0.66
26513,1755597819571,22.9,-44.04,-9.18,773,777,848,922,870,34.48275862068966,-0.389,-0.645,0.66
26543,1755597819573,22.91,-44.01,-9.16,770,766,853,919,879,33.333333333333336,-0.388,-0.643,0.658
26573,1755597819575,22.87,-44.02,-9.18,773,770,846,918,879,33.333333333333336,-0.388,-0.642,0.658
26632,1755597819579,22.87,-44.0,-9.15,771,774,860,921,873,33.333333333333336,-0.385,-0.645,0.665
26661,1755597819581,22.87,-43.95,-9.15,771,770,838,911,870,34.48275862068966,-0.384,-0.644,0.663
26691,1755597819583,22.86,-43.93,-9.16,774,761,850,920,871,33.333333333333336,-0.385,-0.643,0.658
26720,1755597819585,22.85,-43.95,-9.17,769,769,861,913,863,34.48275862068966,-0.388,-0.643,0.656
26750,1755597819587,22.84,-43.97,-9.16,769,767,852,915,871,33.333333333333336,-0.39,-0.643,0.658
26779,1755597819589,22.86,-43.97,-9.13,770,771,855,919,868,34.48275862068966,-0.389,-0.643,0.662
26809,1755597819591,22.9,-43.94,-9.11,765,772,855,913,871,33.333333333333336,-0.387,-0.642,0.662
26838,1755597819593,22.89,-43.94,-9.12,772,770,867,920,872,34.48275862068966,-0.386,-0.642,0.658
26868,1755597819595,22.87,-43.96,-9.14,769,774,853,922,875,33.333333333333336,-0.387,-0.642,0.658
26897,1755597819598,22.89,-43.95,-9.14,774,760,859,919,885,34.48275862068966,-0.387,-0.643,0.661
26927,1755597819600,22.88,-43.93,-9.16,774,769,852,913,869,33.333333333333336,-0.387,-0.643,0.661
26956,1755597819602,22.86,-43.92,-9.17,774,769,862,918,874,34.48275862068966,-0.387,-0.643,0.66
26986,1755597819604,22.91,-43.94,-9.17,771,770,849,915,870,33.333333333333336,-0.386,-0.643,0.66
27015,1755597819606,22.91,-43.94,-9.19,771,770,854,920,877,34.48275862068966,-0.386,-0.642,0.659
27045,1755597819608,22.84,-43.96,-9.24,773,774,857,920,875,33.333333333333336,-0.385,-0.642,0.66
27074,1755597819610,22.86,-43.98,-9.23,774,770,855,916,869,34.48275862068966,-0.386,-0.643,0.662
27104,1755597819612,22.91,-43.95,-9.2,769,766,848,914,874,33.333333333333336,-0.388,-0.644,0.663
27133,1755597819614,22.92,-43.93,-9.19,769,772,861,909,873,34.48275862068966,-0.389,-0.644,0.661
27163,1755597819616,22.93,-43.94,-9.18,776,773,855,927,871,33.333333333333336,-0.388,-0.643,0.658
27192,1755597819619,22.94,-43.95,-9.16,772,769,859,920,873,34.48275862068966,-0.387,-0.644,0.658
27222,1755597819621,22.92,-43.95,-9.16,771,769,858,925,878,33.333333333333336,-0.386,-0.645,0.661
27251,1755597819623,22.92,-43.94,-9.15,772,768,851,924,869,34.48275862068966,-0.385,-0.645,0.662
27281,1755597819625,22.93,-43.93,-9.14,774,765,858,924,869,33.333333333333336,-0.386,-0.644,0.661
27310,1755597819627,22.95,-43.93,-9.13,774,770,856,922,872,34.48275862068966,-0.387,-0.643,0.659
27339,1755597819628,22.96,-43.93,-9.12,770,775,846,913,868,34.48275862068966,-0.388,-0.641,0.659
27369,1755597819630,22.97,-43.92,-9.09,770,770,853,915,875,33.333333333333336,-0.388,-0.643,0.66
27398,1755597819632,22.98,-43.9,-9.06,770,768,853,920,868,34.48275862068966,-0.388,-0.644,0.662
27428,1755597819635,23.01,-43.87,-9.03,768,759,859,915,877,33.333333333333336,-0.387,-0.643,0.662
27458,1755597819637,23.02,-43.84,-9.0,774,771,859,923,866,33.333333333333336,-0.388,-0.642,0.659
27487,1755597819639,23.01,-43.85,-8.99,768,777,848,913,881,34.48275862068966,-0.388,-0.641,0.657
27517,1755597819641,22.99,-43.88,-9.0,774,763,855,923,874,33.333333333333336,-0.388,-0.642,0.66
27546,1755597819643,23.0,-43.87,-8.99,772,769,856,915,874,34.48275862068966,-0.388,-0.642,0.663
27575,1755597819645,23.03,-43.83,-8.98,772,772,847,919,873,34.48275862068966,-0.389,-0.641,0.662
27635,1755597819649,23.04,-43.92,-9.0,772,773,859,912,870,33.333333333333336,-0.389,-0.641,0.66
27665,1755597819650,23.05,-43.9,-9.0,774,768,841,914,873,33.333333333333336,-0.39,-0.642,0.662
27695,1755597819652,23.05,-43.89,-9.01,775,767,862,915,875,33.333333333333336,-0.391,-0.643,0.662
27724,1755597819654,23.05,-43.89,-8.99,765,767,860,918,873,34.48275862068966,-0.391,-0.643,0.661
27754,1755597819656,23.07,-43.89,-8.97,764,769,851,924,868,33.333333333333336,-0.392,-0.642,0.661
27784,1755597819659,23.06,-43.91,-8.97,769,770,851,919,879,33.333333333333336,-0.39,-0.641,0.661
27813,1755597819661,23.05,-43.9,-8.97,769,771,845,923,869,34.48275862068966,-0.389,-0.641,0.661
27843,1755597819663,23.04,-43.92,-8.97,774,763,862,921,868,33.333333333333336,-0.39,-0.642,0.66
27872,1755597819664,23.03,-43.91,-8.97,773,762,850,918,882,34.48275862068966,-0.391,-0.643,0.66
27902,1755597819666,23.02,-43.92,-8.96,768,774,861,921,864,33.333333333333336,-0.391,-0.642,0.66
27931,1755597819669,22.58,-43.93,-8.94,771,772,848,920,867,34.48275862068966,-0.39,-0.641,0.661
27961,1755597819671,22.58,-43.91,-8.94,772,774,856,923,874,33.333333333333336,-0.389,-0.64,0.661
27991,1755597819673,22.57,-43.9,-8.96,768,761,854,920,874,33.333333333333336,-0.389,-0.64,0.66
28020,1755597819674,22.6,-43.9,-8.95,766,767,856,921,874,34.48275862068966,-0.391,-0.641,0.66
28050,1755597819676,22.62,-43.9,-8.94,775,775,856,918,872,33.333333333333336,-0.392,-0.642,0.66
28079,1755597819679,22.63,-43.88,-8.92,765,773,858,910,871,34.48275862068966,-0.392,-0.641,0.659
28109,1755597819681,22.64,-43.91,-8.91,773,768,851,922,877,33.333333333333336,-0.39,-0.64,0.659
28138,1755597819683,22.65,-43.92,-8.92,772,765,856,914,867,34.48275862068966,-0.39,-0.64,0.662
28168,1755597819685,22.65,-43.88,-8.93,768,774,859,924,868,33.333333333333336,-0.39,-0.641,0.662
28197,1755597819687,22.67,-43.87,-8.92,768,774,851,919,876,34.48275862068966,-0.389,-0.64,0.66
28227,1755597819689,22.69,-43.9,-8.92,765,774,861,919,875,33.333333333333336,-0.39,-0.64,0.659
28256,1755597819691,22.68,-43.89,-8.94,774,773,849,924,875,34.48275862068966,-0.392,-0.641,0.66
28286,1755597819693,22.68,-43.89,-8.92,773,775,849,915,871,33.333333333333336,-0.393,-0.642,0.66
28316,1755597819695,22.74,-43.88,-8.88,771,770,849,912,870,33.333333333333336,-0.392,-0.641,0.66
28345,1755597819697,22.72,-43.88,-8.89,773,772,857,912,875,34.48275862068966,-0.39,-0.64,0.659
28375,1755597819700,22.72,-43.9,-8.89,772,766,848,913,885,33.333333333333336,-0.39,-0.641,0.659
28404,1755597819701,22.75,-43.9,-8.89,771,775,839,917,864,34.48275862068966,-0.391,-0.641,0.661
28434,1755597819704,22.75,-43.87,-8.88,769,771,856,919,869,33.333333333333336,-0.392,-0.641,0.662
28493,1755597819707,22.76,-43.82,-8.82,773,773,836,920,867,33.333333333333336,-0.391,-0.639,0.659
28522,1755597819710,22.73,-43.83,-8.81,768,763,849,914,867,34.48275862068966,-0.391,-0.638,0.659
28552,1755597819712,22.72,-43.84,-8.8,772,763,858,915,868,33.333333333333336,-0.391,-0.64,0.661
28581,1755597819714,22.76,-43.82,-8.76,772,766,853,918,874,34.48275862068966,-0.392,-0.641,0.663
28641,1755597819718,22.75,-43.81,-8.71,772,779,851,915,868,33.333333333333336,-0.39,-0.64,0.661
28670,1755597819748,22.77,-43.79,-8.71,775,777,855,914,873,34.48275862068966,-0.389,-0.638,0.66
28699,1755597819777,22.77,-43.79,-8.71,772,771,850,912,865,34.48275862068966,-0.389,-0.637,0.659
28729,1755597819807,22.77,-43.84,-8.73,771,760,861,908,875,33.333333333333336,-0.39,-0.637,0.659
28759,1755597819836,22.77,-43.84,-8.76,770,768,852,918,877,33.333333333333336,-0.389,-0.637,0.662
28788,1755597819866,22.78,-43.84,-8.79,767,769,856,914,870,34.48275862068966,-0.391,-0.642,0.662
28818,1755597819896,22.83,-43.84,-8.78,770,767,853,912,866,33.333333333333336,-0.392,-0.643,0.66
28847,1755597819925,22.86,-43.84,-8.77,773,769,860,921,864,34.48275862068966,-0.393,-0.641,0.658
28906,1755597819984,22.82,-43.91,-8.78,770,772,849,917,872,34.48275862068966,-0.392,-0.64,0.658
28936,1755597820014,22.83,-43.92,-8.78,771,770,854,917,873,33.333333333333336,-0.391,-0.641,0.662
28965,1755597820044,22.85,-43.88,-8.76,774,774,850,919,872,34.48275862068966,-0.389,-0.641,0.664
28995,1755597820073,22.86,-43.85,-8.77,767,762,850,920,878,33.333333333333336,-0.389,-0.641,0.663
29025,1755597820103,22.86,-43.88,-8.78,774,771,857,924,876,33.333333333333336,-0.388,-0.64,0.659
29054,1755597820132,22.87,-43.92,-8.79,769,762,860,921,868,34.48275862068966,-0.39,-0.641,0.658
29084,1755597820162,22.86,-43.94,-8.78,769,765,857,920,872,33.333333333333336,-0.391,-0.643,0.658
29113,1755597820191,22.86,-43.96,-8.78,774,772,858,916,873,34.48275862068966,-0.391,-0.644,0.66
29143,1755597820221,22.88,-43.96,-8.76,770,772,854,929,873,33.333333333333336,-0.391,-0.643,0.662
29172,1755597820250,22.9,-43.93,-8.74,775,763,854,919,858,34.48275862068966,-0.39,-0.642,0.662
29202,1755597820280,22.92,-43.92,-8.73,777,770,854,927,874,33.333333333333336,-0.39,-0.642,0.654
29231,1755597820309,22.92,-43.93,-8.73,771,774,858,920,875,34.48275862068966,-0.39,-0.641,0.654
29261,1755597820338,22.94,-43.94,-8.72,772,766,851,912,884,33.333333333333336,-0.392,-0.641,0.654
29290,1755597820368,23.39,-43.95,-8.72,776,768,853,919,868,34.48275862068966,-0.392,-0.642,0.655
29320,1755597820398,23.38,-43.96,-8.71,771,774,848,908,870,33.333333333333336,-0.392,-0.641,0.656
29349,1755597820427,23.38,-43.95,-8.71,775,764,850,916,861,34.48275862068966,-0.392,-0.641,0.657
29379,1755597820457,23.38,-43.95,-8.71,771,772,846,914,876,33.333333333333336,-0.392,-0.641,0.655
29408,1755597820486,23.36,-43.98,-8.72,772,773,854,922,868,34.48275862068966,-0.393,-0.642,0.654
29438,1755597820516,23.35,-44.0,-8.72,771,770,859,926,867,33.333333333333336,-0.393,-0.644,0.656
29467,1755597820545,23.34,-44.0,-8.71,774,771,851,920,872,34.48275862068966,-0.392,-0.644,0.656
29497,1755597820575,23.32,-44.01,-8.7,769,768,851,920,871,33.333333333333336,-0.39,-0.643,0.656
29527,1755597820604,23.33,-44.01,-8.71,773,766,853,922,873,33.333333333333336,-0.39,-0.642,0.657
29586,1755597820663,23.31,-44.01,-8.73,770,769,866,913,867,33.333333333333336,-0.391,-0.642,0.658
29615,1755597820693,23.33,-44.01,-8.73,763,769,855,921,870,34.48275862068966,-0.391,-0.642,0.657
29635,1755597820713,23.32,-44.02,-8.73,770,768,841,927,877,50.0,-0.39,-0.642,0.657
29665,1755597820743,23.3,-44.02,-8.75,772,777,854,918,872,33.333333333333336,-0.391,-0.643,0.657
29694,1755597820772,23.3,-44.02,-8.75,773,763,859,921,862,34.48275862068966,-0.392,-0.643,0.657
29753,1755597820831,23.3,-44.02,-8.73,770,774,853,914,866,34.48275862068966,-0.391,-0.643,0.656
29783,1755597820861,23.31,-44.02,-8.72,770,776,868,919,874,33.333333333333336,-0.39,-0.643,0.657
29812,1755597820890,23.3,-44.01,-8.72,771,775,857,916,873,34.48275862068966,-0.391,-0.644,0.658
29842,1755597820920,23.29,-44.0,-8.71,775,774,859,923,868,33.333333333333336,-0.39,-0.643,0.659
29871,1755597820949,23.33,-43.99,-8.71,766,767,868,919,877,34.48275862068966,-0.389,-0.641,0.658
29901,1755597820979,23.33,-44.04,-8.74,776,762,855,918,863,33.333333333333336,-0.39,-0.641,0.655
29930,1755597821008,23.3,-44.06,-8.77,770,781,860,914,873,34.48275862068966,-0.393,-0.644,0.655
29960,1755597821038,23.3,-44.06,-8.75,771,761,856,916,884,33.333333333333336,-0.395,-0.646,0.658
29990,1755597821068,23.32,-44.04,-8.71,771,769,854,919,876,33.333333333333336,-0.393,-0.645,0.658
30049,1755597821127,23.29,-44.03,-8.73,775,767,858,920,865,33.333333333333336,-0.389,-0.642,0.657
30078,1755597821156,23.28,-44.02,-8.74,767,766,851,922,869,34.48275862068966,-0.39,-0.644,0.657
30137,1755597821215,23.26,-44.0,-8.7,771,768,850,922,873,34.48275862068966,-0.392,-0.644,0.656
30167,1755597821245,23.28,-44.03,-8.67,772,768,864,930,874,33.333333333333336,-0.39,-0.642,0.655
30196,1755597821274,23.27,-44.05,-8.67,773,768,845,911,876,34.48275862068966,-0.389,-0.64,0.656
30226,1755597821304,23.23,-44.06,-8.69,774,765,855,916,870,33.333333333333336,-0.389,-0.642,0.658
30255,1755597821333,23.24,-44.05,-8.68,773,771,860,917,870,34.48275862068966,-0.39,-0.643,0.659
30285,1755597821362,23.28,-44.04,-8.66,769,775,848,910,863,33.333333333333336,-0.391,-0.642,0.658
30314,1755597821392,23.28,-44.04,-8.67,768,772,848,918,874,34.48275862068966,-0.392,-0.643,0.657
30344,1755597821422,23.25,-44.03,-8.68,771,762,846,911,873,33.333333333333336,-0.391,-0.643,0.656
30373,1755597821451,23.26,-44.01,-8.67,770,766,856,916,875,34.48275862068966,-0.391,-0.644,0.657
30403,1755597821481,23.28,-44.01,-8.67,767,770,849,916,865,33.333333333333336,-0.391,-0.644,0.657
30432,1755597821510,23.27,-44.05,-8.7,772,765,853,914,877,34.48275862068966,-0.391,-0.643,0.657
30462,1755597821540,23.27,-44.05,-8.71,770,770,856,919,872,33.333333333333336,-0.391,-0.643,0.658
30491,1755597821569,23.28,-44.03,-8.7,773,765,854,914,872,34.48275862068966,-0.39,-0.643,0.66
30521,1755597821599,23.31,-44.03,-8.7,770,766,853,919,876,33.333333333333336,-0.39,-0.643,0.659
30550,1755597821628,23.31,-44.01,-8.7,774,771,853,922,875,34.48275862068966,-0.391,-0.642,0.658
30580,1755597821658,23.31,-44.03,-8.72,775,772,864,911,879,33.333333333333336,-0.393,-0.642,0.657
30610,1755597821687,23.33,-44.05,-8.73,772,769,849,917,871,33.333333333333336,-0.394,-0.643,0.658
30639,1755597821717,23.34,-44.04,-8.72,777,770,850,913,867,34.48275862068966,-0.395,-0.644,0.658
30669,1755597821746,23.35,-44.05,-8.69,764,764,852,919,880,33.333333333333336,-0.394,-0.644,0.657
30698,1755597821778,23.36,-44.06,-8.68,770,774,846,920,870,34.48275862068966,-0.394,-0.643,0.657
30720,1755597821798,23.35,-44.07,-8.68,772,763,858,922,877,45.45454545454545,-0.393,-0.641,0.655
30749,1755597821827,23.38,-44.08,-8.68,779,766,855,919,871,34.48275862068966,-0.393,-0.642,0.656
30779,1755597821857,23.41,-44.09,-8.66,774,768,853,912,869,33.333333333333336,-0.395,-0.645,0.657
30809,1755597821886,23.43,-44.09,-8.62,770,767,850,922,872,33.333333333333336,-0.393,-0.645,0.659
30838,1755597821916,23.43,-44.07,-8.6,767,764,860,916,872,34.48275862068966,-0.39,-0.643,0.662
30867,1755597821945,23.44,-44.05,-8.6,775,769,853,909,873,34.48275862068966,-0.389,-0.642,0.663
30897,1755597821975,23.44,-44.03,-8.61,771,774,860,917,871,33.333333333333336,-0.392,-0.642,0.66
30926,1755597822004,23.43,-44.02,-8.6,769,762,852,918,879,34.48275862068966,-0.395,-0.642,0.653
30956,1755597822034,23.38,-44.09,-8.6,766,770,857,917,870,33.333333333333336,-0.397,-0.638,0.644
30985,1755597822063,23.26,-44.31,-8.64,769,763,856,915,869,34.48275862068966,-0.401,-0.639,0.649
31015,1755597822093,23.13,-44.47,-8.19,776,770,851,920,873,33.333333333333336,-0.405,-0.64,0.658
31045,1755597822123,23.13,-44.49,-8.12,773,769,854,916,871,33.333333333333336,-0.403,-0.644,0.663
31074,1755597822152,23.19,-44.44,-8.03,774,772,851,913,875,34.48275862068966,-0.397,-0.651,0.665
31104,1755597822182,23.22,-44.33,-7.96,772,776,850,920,864,33.333333333333336,-0.388,-0.654,0.659
31133,1755597822211,23.21,-44.27,-7.92,770,765,849,917,875,34.48275862068966,-0.383,-0.656,0.653
31163,1755597822240,23.2,-44.26,-7.91,772,767,846,906,863,33.333333333333336,-0.38,-0.654,0.653
31192,1755597822270,23.2,-44.29,-7.93,763,775,851,919,864,34.48275862068966,-0.382,-0.649,0.656
31222,1755597822300,23.18,-44.27,-7.96,773,769,850,917,873,33.333333333333336,-0.387,-0.642,0.662
31251,1755597822329,23.23,-44.22,-7.99,775,761,856,911,872,34.48275862068966,-0.392,-0.639,0.665
31281,1755597822359,23.33,-44.22,-8.0,768,771,850,916,871,33.333333333333336,-0.395,-0.637,0.66
31310,1755597822388,23.36,-44.22,-8.01,770,770,853,920,873,34.48275862068966,-0.398,-0.64,0.655
31340,1755597822418,23.32,-44.27,-8.01,771,767,852,921,874,33.333333333333336,-0.396,-0.645,0.652
31369,1755597822447,23.32,-44.32,-7.98,772,770,856,909,866,34.48275862068966,-0.393,-0.648,0.652
31458,1755597822536,23.35,-44.29,-7.96,772,773,849,920,871,33.333333333333336,-0.396,-0.648,0.653
31487,1755597822565,23.37,-44.29,-7.94,771,767,843,916,863,34.48275862068966,-0.397,-0.646,0.652
31517,1755597822595,23.35,-44.3,-7.93,766,775,852,917,868,33.333333333333336,-0.397,-0.645,0.654
31546,1755597822624,23.33,-44.29,-7.94,769,767,864,919,868,34.48275862068966,-0.396,-0.644,0.656
31576,1755597822654,23.37,-44.28,-7.92,771,773,850,913,873,33.333333333333336,-0.394,-0.644,0.657
31605,1755597822683,23.38,-44.25,-7.92,770,762,860,913,868,34.48275862068966,-0.393,-0.644,0.657
31635,1755597822713,23.37,-44.26,-7.96,766,770,854,923,875,33.333333333333336,-0.393,-0.644,0.654
31694,1755597822772,23.4,-44.29,-7.96,773,771,852,907,873,33.333333333333336,-0.398,-0.647,0.654
31723,1755597822801,23.41,-44.31,-7.94,764,761,850,912,875,34.48275862068966,-0.398,-0.647,0.653
31753,1755597822831,23.41,-44.32,-7.93,769,767,858,919,870,33.333333333333336,-0.398,-0.646,0.652
31782,1755597822860,23.41,-44.34,-7.92,772,769,854,916,868,34.48275862068966,-0.394,-0.643,0.652
31812,1755597822890,23.36,-44.39,-7.97,769,767,861,909,871,33.333333333333336,-0.394,-0.644,0.654
31841,1755597822919,23.36,-44.42,-7.98,771,766,857,920,886,34.48275862068966,-0.394,-0.646,0.653
31871,1755597822949,23.38,-44.46,-7.95,769,775,855,922,872,33.333333333333336,-0.395,-0.645,0.652
31900,1755597822978,23.37,-44.5,-7.97,770,769,855,913,875,34.48275862068966,-0.396,-0.644,0.654
31930,1755597823008,23.35,-44.48,-7.99,771,771,849,920,868,33.333333333333336,-0.396,-0.648,0.655
31959,1755597823037,23.39,-44.47,-7.97,775,769,845,914,870,34.48275862068966,-0.396,-0.649,0.653
31989,1755597823067,23.39,-44.46,-7.95,771,768,849,916,876,33.333333333333336,-0.396,-0.649,0.651
32018,1755597823096,23.37,-44.45,-7.95,772,769,853,922,870,34.48275862068966,-0.396,-0.649,0.651
32048,1755597823126,23.36,-44.47,-7.94,770,772,854,921,881,33.333333333333336,-0.395,-0.648,0.652
32078,1755597823155,23.37,-44.45,-7.94,776,775,849,918,867,33.333333333333336,-0.395,-0.648,0.655
32107,1755597823185,23.37,-44.4,-7.93,769,765,848,914,871,34.48275862068966,-0.396,-0.648,0.654
32137,1755597823214,23.36,-44.38,-7.94,773,776,854,917,868,33.333333333333336,-0.397,-0.649,0.65
32166,1755597823244,23.36,-44.39,-7.91,769,765,849,918,871,34.48275862068966,-0.398,-0.648,0.648
32196,1755597823274,23.36,-44.42,-7.89,771,769,850,922,868,33.333333333333336,-0.396,-0.648,0.65
32225,1755597823303,23.34,-44.42,-7.89,774,766,854,920,870,34.48275862068966,-0.394,-0.646,0.653
32284,1755597823362,23.36,-44.4,-7.91,777,769,855,919,873,34.48275862068966,-0.393,-0.646,0.656
32314,1755597823391,23.36,-44.39,-7.92,774,771,855,915,875,33.333333333333336,-0.395,-0.646,0.654
32343,1755597823421,23.38,-44.4,-7.93,771,766,860,916,875,34.48275862068966,-0.396,-0.647,0.653
32373,1755597823451,23.4,-44.41,-7.92,769,773,854,917,866,33.333333333333336,-0.397,-0.648,0.652
32432,1755597823510,23.41,-44.37,-7.88,768,775,853,918,874,33.333333333333336,-0.395,-0.646,0.652
32461,1755597823539,23.4,-44.41,-7.9,771,772,856,922,872,34.48275862068966,-0.396,-0.643,0.65
32491,1755597823569,23.38,-44.42,-7.93,773,769,854,921,864,33.333333333333336,-0.396,-0.645,0.653
32520,1755597823598,23.39,-44.44,-7.94,769,767,859,918,859,34.48275862068966,-0.395,-0.648,0.653
32550,1755597823628,23.43,-44.46,-7.94,767,769,851,919,866,33.333333333333336,-0.396,-0.649,0.654
32579,1755597823657,23.45,-44.43,-7.95,772,770,856,920,870,34.48275862068966,-0.398,-0.649,0.654
32609,1755597823687,23.43,-44.39,-7.94,772,772,855,916,872,33.333333333333336,-0.399,-0.648,0.651
32638,1755597823716,23.43,-44.41,-7.93,767,765,853,914,885,34.48275862068966,-0.397,-0.648,0.651
32668,1755597823746,23.43,-44.42,-7.93,766,763,846,913,868,33.333333333333336,-0.396,-0.647,0.653
32697,1755597823775,23.4,-44.38,-7.93,769,768,853,923,869,34.48275862068966,-0.397,-0.65,0.655
32727,1755597823805,23.4,-44.33,-7.89,771,773,848,914,873,33.333333333333336,-0.398,-0.651,0.656
32786,1755597823864,23.41,-44.23,-7.8,775,767,857,920,868,33.333333333333336,-0.395,-0.647,0.652
32815,1755597823893,23.32,-44.22,-7.81,773,767,853,920,871,34.48275862068966,-0.394,-0.642,0.651
32845,1755597823923,23.3,-44.23,-7.85,770,768,851,921,872,33.333333333333336,-0.398,-0.639,0.651
32874,1755597823953,23.27,-44.2,-7.86,774,768,842,920,877,34.48275862068966,-0.399,-0.645,0.653
32934,1755597824012,23.31,-44.19,-7.79,770,769,854,914,869,33.333333333333336,-0.393,-0.643,0.653
32963,1755597824041,23.23,-44.18,-7.81,774,763,854,918,869,34.48275862068966,-0.391,-0.643,0.652
32993,1755597824071,23.19,-44.2,-7.81,774,767,853,914,875,33.333333333333336,-0.393,-0.644,0.654
33022,1755597824100,23.23,-44.17,-7.77,767,777,850,917,863,34.48275862068966,-0.395,-0.645,0.658
33052,1755597824129,23.26,-44.07,-7.71,771,768,858,921,870,33.333333333333336,-0.396,-0.646,0.659
33081,1755597824159,23.23,-43.94,-7.67,773,779,848,914,875,34.48275862068966,-0.398,-0.647,0.656
33111,1755597824188,23.21,-43.82,-7.62,771,771,849,911,871,33.333333333333336,-0.398,-0.647,0.654
33140,1755597824218,23.19,-43.79,-7.56,771,766,857,924,872,34.48275862068966,-0.394,-0.643,0.653
33170,1755597824247,23.22,-43.78,-7.52,768,773,851,915,870,33.333333333333336,-0.391,-0.638,0.655
33199,1755597824277,23.23,-43.79,-7.56,770,765,846,913,870,34.48275862068966,-0.392,-0.634,0.657
33258,1755597824336,23.23,-43.87,-7.65,775,763,851,923,875,34.48275862068966,-0.398,-0.634,0.659
33288,1755597824366,23.29,-43.9,-7.62,769,769,851,919,865,33.333333333333336,-0.399,-0.638,0.66
33317,1755597824395,23.33,-43.93,-7.6,770,768,852,915,868,34.48275862068966,-0.397,-0.639,0.659
33347,1755597824425,23.33,-43.95,-7.61,769,773,849,914,868,33.333333333333336,-0.397,-0.639,0.658
33376,1755597824455,23.31,-43.98,-7.64,772,770,848,914,875,34.48275862068966,-0.399,-0.64,0.66
33406,1755597824484,23.3,-43.97,-7.63,774,773,851,914,861,33.333333333333336,-0.398,-0.642,0.661
33436,1755597824514,23.36,-43.95,-7.59,771,762,853,916,870,33.333333333333336,-0.396,-0.641,0.66
33465,1755597824543,23.35,-43.93,-7.61,770,762,851,916,868,34.48275862068966,-0.395,-0.637,0.659
33495,1755597824573,23.31,-43.94,-7.65,768,770,854,917,860,33.333333333333336,-0.396,-0.636,0.657
33525,1755597824603,23.33,-43.97,-7.64,773,769,849,910,874,33.333333333333336,-0.398,-0.636,0.658
33545,1755597824623,23.36,-43.99,-7.64,770,778,847,912,873,50.0,-0.4,-0.636,0.66
33574,1755597824652,23.35,-44.0,-7.65,775,760,848,916,872,34.48275862068966,-0.399,-0.636,0.66
33603,1755597824681,23.36,-44.02,-7.67,771,769,856,911,870,34.48275862068966,-0.398,-0.636,0.659
33633,1755597824711,23.38,-44.02,-7.68,774,760,851,914,873,33.333333333333336,-0.399,-0.639,0.658
33662,1755597824740,23.36,-44.04,-7.69,775,769,852,929,869,34.48275862068966,-0.4,-0.642,0.657
33692,1755597824770,23.38,-44.07,-7.68,772,767,862,914,871,33.333333333333336,-0.397,-0.642,0.656
33721,1755597824799,23.41,-44.07,-7.69,773,773,843,914,874,34.48275862068966,-0.396,-0.641,0.656
33751,1755597824829,23.38,-44.09,-7.71,774,769,851,911,869,33.333333333333336,-0.397,-0.641,0.656
33780,1755597824859,23.39,-44.13,-7.72,770,771,855,914,877,34.48275862068966,-0.398,-0.642,0.658
33810,1755597824888,23.43,-44.11,-7.71,769,769,853,914,865,33.333333333333336,-0.399,-0.642,0.657
33840,1755597824918,23.38,-44.1,-7.73,769,766,852,917,864,33.333333333333336,-0.399,-0.643,0.656
33869,1755597824947,23.43,-44.12,-7.71,773,769,849,920,874,34.48275862068966,-0.398,-0.643,0.656
33899,1755597824977,23.47,-44.12,-7.7,773,769,852,920,871,33.333333333333336,-0.397,-0.643,0.657
33929,1755597825007,23.41,-44.11,-7.72,773,769,840,925,872,33.333333333333336,-0.395,-0.644,0.657
33958,1755597825036,23.43,-44.09,-7.71,772,771,854,920,867,34.48275862068966,-0.395,-0.644,0.657
